sub	sess	t	rew	loc	cue	co1	co2	or	resp	rt	rew_tot
2	1	1	0	1	2	0.1395	0.0500	1	1	0.598	8
2	1	2	1	2	1	0.1395	0.0500	1	0	0.778	0
2	1	3	0	1	1	0.1395	0.0500	1	1	0.486	9
2	1	4	0	2	2	0.1395	0.0500	0	1	0.658	7
2	1	5	0	1	3	0.1395	0.0500	0	1	0.595	8
2	1	6	1	2	2	0.1395	0.0500	1	1	0.610	74
2	1	7	1	2	2	0.1395	0.0500	0	1	0.653	70
2	1	8	0	2	3	0.1395	0.0500	0	1	0.724	6
2	1	9	1	1	1	0.1395	0.0500	1	1	0.548	80
2	1	10	1	2	2	0.1395	0.0500	0	1	0.599	75
2	1	11	1	1	2	0.1395	0.0500	1	1	0.545	81
2	1	12	0	1	1	0.1395	0.0500	1	1	0.634	7
2	1	13	0	2	2	0.1395	0.0500	0	1	0.563	8
2	1	14	1	1	1	0.1395	0.0500	0	1	0.543	81
2	1	15	0	1	3	0.1395	0.0500	1	1	0.477	9
2	1	16	0	1	1	0.1395	0.0500	1	1	0.553	8
2	1	17	0	2	3	0.1395	0.0500	1	1	0.606	7
2	1	18	0	2	2	0.1395	0.0500	0	1	0.544	8
2	1	19	0	1	1	0.1395	0.0500	1	1	0.500	9
2	1	20	1	1	2	0.1395	0.0500	1	1	0.501	85
2	1	21	1	2	1	0.1395	0.0500	1	1	0.615	73
2	1	22	0	1	1	0.1395	0.0500	1	1	0.747	6
2	1	23	0	1	1	0.1395	0.0500	0	1	0.488	9
2	1	24	0	1	1	0.1395	0.0500	0	1	0.475	9
2	1	25	1	1	1	0.1395	0.0500	1	1	0.761	59
2	1	26	1	2	3	0.1395	0.0500	1	1	0.675	67
2	1	27	1	1	3	0.1395	0.0500	0	1	0.437	91
2	1	28	0	1	3	0.1395	0.0500	1	1	0.504	8
2	1	29	1	1	1	0.1395	0.0500	0	1	0.469	88
2	1	30	0	2	2	0.1395	0.0500	1	1	0.568	8
2	1	31	0	2	1	0.1395	0.0500	0	1	0.635	7
2	1	32	1	2	2	0.1395	0.0500	0	0	0.768	0
2	1	33	1	2	3	0.1395	0.0500	0	1	0.598	75
2	1	34	1	2	2	0.1395	0.0500	1	0	0.887	0
2	1	35	0	2	2	0.1395	0.0500	1	1	0.726	6
2	1	36	1	2	2	0.1395	0.0500	1	1	0.556	79
2	1	37	0	2	2	0.1395	0.0500	1	0	0.787	0
2	1	38	1	2	1	0.1395	0.0500	1	1	0.498	85
2	1	39	0	2	2	0.1395	0.0500	1	1	0.539	8
2	1	40	1	1	3	0.1395	0.0500	1	1	0.784	57
2	1	41	1	1	1	0.1395	0.0500	1	0	0.546	0
2	1	42	0	1	3	0.1395	0.0500	1	1	0.616	7
2	1	43	0	1	3	0.1395	0.0500	0	1	0.650	7
2	1	44	1	2	3	0.1395	0.0500	1	1	0.607	74
2	1	45	0	2	2	0.1395	0.0500	0	1	0.667	7
2	1	46	0	1	1	0.1395	0.0500	0	1	0.506	8
2	1	47	1	1	1	0.1395	0.0500	1	1	0.552	80
2	1	48	0	2	3	0.1395	0.0500	0	1	0.761	6
2	1	49	0	2	3	0.1395	0.0500	0	1	0.765	6
2	1	50	0	1	3	0.1395	0.0500	0	1	0.610	7
2	1	51	1	2	2	0.1395	0.0500	1	1	0.524	83
2	1	52	1	2	3	0.1395	0.0500	0	1	0.760	59
2	1	53	1	2	3	0.1395	0.0500	0	1	0.611	74
2	1	54	0	1	3	0.1395	0.0500	1	1	0.629	7
2	1	55	1	1	1	0.1395	0.0500	1	1	0.688	66
2	1	56	0	2	2	0.1395	0.0500	0	1	0.508	8
2	1	57	0	2	3	0.1395	0.0500	1	1	0.677	7
2	1	58	0	1	1	0.1395	0.0500	0	1	0.681	7
2	1	59	1	1	3	0.1395	0.0500	0	1	0.520	83
2	1	60	0	2	3	0.1395	0.0500	0	1	0.495	9
2	1	61	0	1	3	0.1395	0.0500	0	1	0.538	8
2	1	62	1	2	2	0.1395	0.0500	1	1	0.954	50
2	1	63	1	1	1	0.1395	0.0500	1	0	0.572	0
2	1	64	1	2	2	0.1395	0.0500	1	1	0.618	73
2	1	65	1	2	2	0.1395	0.0500	0	1	0.715	63
2	1	66	0	2	3	0.1395	0.0500	0	1	0.549	8
2	1	67	1	2	2	0.1395	0.0500	0	1	0.547	80
2	1	68	1	1	3	0.1395	0.0500	0	1	0.526	82
2	1	69	0	1	2	0.1395	0.0500	1	1	0.581	8
2	1	70	0	1	1	0.1395	0.0500	1	1	0.716	6
2	1	71	1	2	3	0.1395	0.0500	1	1	0.578	77
2	1	72	1	1	1	0.1395	0.0500	1	1	0.522	83
2	1	73	1	2	3	0.1395	0.0500	0	1	0.706	64
2	1	74	1	1	3	0.1395	0.0500	1	1	0.501	85
2	1	75	0	1	1	0.1395	0.0500	0	1	0.627	7
2	1	76	0	2	3	0.1395	0.0500	1	1	0.506	8
2	1	77	1	2	1	0.1395	0.0500	0	1	0.479	87
2	1	78	1	2	3	0.1395	0.0500	1	1	0.552	80
2	1	79	1	2	2	0.1395	0.0500	0	1	0.552	80
2	1	80	0	2	2	0.1395	0.0500	0	1	0.603	7
2	1	81	0	2	3	0.1395	0.0500	1	1	0.563	8
2	1	82	1	2	3	0.1395	0.0500	0	1	0.484	87
2	1	83	1	1	2	0.1395	0.0500	1	1	0.531	82
2	1	84	1	1	2	0.1395	0.0500	0	1	0.525	83
2	1	85	1	2	3	0.1395	0.0500	1	1	0.540	81
2	1	86	0	1	3	0.1395	0.0500	1	1	0.774	6
2	1	87	1	1	3	0.1395	0.0500	1	1	0.605	75
2	1	88	1	2	3	0.1395	0.0500	0	1	0.705	65
2	1	89	1	2	3	0.1395	0.0500	0	0	0.842	0
2	1	90	1	1	1	0.1395	0.0500	0	1	0.634	72
2	1	91	0	2	2	0.1395	0.0500	1	1	0.673	7
2	1	92	0	1	1	0.1395	0.0500	0	1	0.511	8
2	1	93	1	1	2	0.1395	0.0500	1	1	0.653	70
2	1	94	1	1	1	0.1395	0.0500	0	1	0.626	72
2	1	95	0	2	3	0.1395	0.0500	0	1	0.688	7
2	1	96	1	2	3	0.1395	0.0500	1	1	0.497	85
2	1	97	0	2	3	0.1395	0.0500	1	1	0.673	7
2	1	98	0	1	3	0.1395	0.0500	1	1	0.719	6
2	1	99	0	1	1	0.1395	0.0500	0	1	0.490	9
2	1	100	1	1	3	0.1395	0.0500	0	1	0.434	92
2	1	101	0	1	1	0.1395	0.0500	0	1	0.455	9
2	1	102	0	2	3	0.1395	0.0500	1	1	0.700	7
2	1	103	1	1	1	0.1395	0.0500	0	1	0.593	76
2	1	104	0	2	3	0.1395	0.0500	1	0	0.568	0
2	1	105	0	2	2	0.1395	0.0500	1	1	0.818	5
2	1	106	0	2	2	0.1395	0.0500	1	1	0.606	7
2	1	107	0	2	2	0.1395	0.0500	1	1	0.654	7
2	1	108	0	2	1	0.1395	0.0500	0	1	1.023	5
2	1	109	1	1	1	0.1395	0.0500	1	1	0.664	69
2	1	110	0	1	1	0.1395	0.0500	1	1	0.698	7
2	1	111	0	1	3	0.1395	0.0500	1	0	0.581	0
2	1	112	0	2	1	0.1395	0.0500	0	1	0.670	7
2	1	113	1	1	1	0.1395	0.0500	0	1	0.566	78
2	1	114	0	2	2	0.1395	0.0500	1	0	0.690	0
2	1	115	0	1	1	0.1395	0.0500	1	0	0.926	0
2	1	116	0	1	3	0.1395	0.0500	1	1	0.530	8
2	1	117	0	2	2	0.1395	0.0500	0	1	0.686	7
2	1	118	1	2	2	0.1395	0.0500	1	1	0.618	73
2	1	119	0	1	2	0.1395	0.0500	0	0	1.005	0
2	1	120	1	2	2	0.1395	0.0500	0	1	1.553	50
2	1	121	0	1	1	0.1395	0.0500	0	1	0.585	8
2	1	122	1	1	3	0.1395	0.0500	1	1	0.474	88
2	1	123	1	2	3	0.1395	0.0500	0	1	0.699	65
2	1	124	1	1	1	0.1395	0.0500	0	1	0.490	86
2	1	125	0	1	3	0.1395	0.0500	0	1	0.429	9
2	1	126	1	1	3	0.1395	0.0500	1	1	0.757	59
2	1	127	0	1	1	0.1395	0.0500	0	1	0.480	9
2	1	128	1	1	3	0.1395	0.0500	0	1	0.413	94
2	1	129	0	2	3	0.1395	0.0500	1	1	0.846	5
2	1	130	1	1	3	0.1395	0.0500	0	1	0.546	80
2	1	131	1	2	2	0.1395	0.0500	0	1	0.606	74
2	1	132	1	1	3	0.1395	0.0500	1	1	0.476	87
2	1	133	0	1	3	0.1395	0.0500	1	1	0.512	8
2	1	134	1	1	2	0.1395	0.0500	0	1	0.434	92
2	1	135	0	2	1	0.1395	0.0500	1	1	0.696	7
2	1	136	1	1	3	0.1395	0.0500	0	1	0.472	88
2	1	137	0	1	3	0.1395	0.0500	0	1	0.419	9
2	1	138	1	1	1	0.1395	0.0500	1	1	0.638	71
2	1	139	1	1	1	0.1395	0.0500	1	1	0.521	83
2	1	140	1	2	3	0.1395	0.0500	1	1	0.806	54
2	1	141	1	2	3	0.1395	0.0500	1	0	0.706	0
2	1	142	1	1	1	0.1395	0.0500	0	1	0.512	84
2	1	143	1	1	1	0.1395	0.0500	0	1	0.458	89
2	1	144	1	1	1	0.1395	0.0500	1	1	0.500	85
2	1	145	1	2	2	0.1395	0.0500	0	0	0.845	0
2	1	146	0	2	3	0.1395	0.0500	1	1	0.741	6
2	1	147	0	1	1	0.1395	0.0500	0	1	0.510	8
2	1	148	0	1	1	0.1395	0.0500	0	1	0.455	9
2	1	149	0	2	2	0.1395	0.0500	1	1	0.700	6
2	1	150	0	2	1	0.1395	0.0500	0	0	0.637	0
2	1	151	1	2	2	0.1395	0.0500	0	0	0.661	0
2	1	152	0	1	3	0.1395	0.0500	1	1	0.851	5
2	1	153	0	1	3	0.1395	0.0500	1	1	0.592	8
2	1	154	1	1	3	0.1395	0.0500	1	1	0.696	65
2	1	155	0	2	3	0.1395	0.0500	1	0	1.310	0
2	1	156	0	1	2	0.1395	0.0500	0	1	0.485	9
2	1	157	0	1	1	0.1395	0.0500	1	1	0.851	5
2	1	158	0	1	3	0.1395	0.0500	0	1	0.516	8
2	1	159	0	1	3	0.1395	0.0500	1	1	0.678	7
2	1	160	0	2	2	0.1395	0.0500	0	1	0.529	8
2	1	161	0	2	1	0.1395	0.0500	1	1	0.716	6
2	1	162	0	2	3	0.1395	0.0500	0	1	0.660	7
2	1	163	0	2	2	0.1395	0.0500	0	1	0.581	8
2	1	164	1	2	3	0.1395	0.0500	0	1	1.270	50
2	1	165	0	2	3	0.1395	0.0500	0	1	0.501	8
2	1	166	1	2	1	0.1395	0.0500	0	1	0.931	50
2	1	167	1	1	3	0.1395	0.0500	1	1	0.736	61
2	1	168	1	2	3	0.1395	0.0500	0	0	0.991	0
2	1	169	1	1	1	0.1395	0.0500	0	0	0.801	0
2	1	170	1	1	3	0.1395	0.0500	1	1	0.556	79
2	1	171	0	2	3	0.1395	0.0500	1	1	0.690	7
2	1	172	1	2	3	0.1395	0.0500	0	1	0.552	80
2	1	173	1	1	1	0.1395	0.0500	1	0	1.055	0
2	1	174	1	1	1	0.1395	0.0500	1	1	0.679	67
2	1	175	1	2	3	0.1395	0.0500	1	1	0.661	69
2	1	176	0	1	2	0.1395	0.0500	0	1	0.493	9
2	1	177	1	2	2	0.1395	0.0500	0	1	0.664	69
2	1	178	1	2	1	0.1395	0.0500	1	1	0.579	77
2	1	179	1	2	2	0.1395	0.0500	1	1	1.283	50
2	1	180	0	1	1	0.1395	0.0500	1	0	0.646	0
2	1	181	0	2	3	0.1395	0.0500	1	1	0.697	7
2	1	182	0	1	2	0.1395	0.0500	1	0	0.658	0
2	1	183	1	2	2	0.1395	0.0500	0	1	0.504	85
2	1	184	0	2	2	0.1395	0.0500	1	0	0.518	0
2	1	185	0	2	3	0.1395	0.0500	1	1	0.681	7
2	1	186	0	2	1	0.1395	0.0500	1	1	0.517	8
2	1	187	0	1	3	0.1395	0.0500	0	1	0.599	8
2	1	188	0	2	3	0.1395	0.0500	1	0	0.831	0
2	1	189	1	1	3	0.1395	0.0500	1	1	0.661	69
2	1	190	1	2	3	0.1395	0.0500	1	1	0.565	79
2	1	191	0	2	3	0.1395	0.0500	0	1	0.631	7
2	1	192	1	1	3	0.1395	0.0500	0	1	0.431	92
2	1	193	0	1	3	0.1395	0.0500	1	1	0.791	6
2	1	194	1	2	2	0.1395	0.0500	0	1	0.569	78
2	1	195	0	2	2	0.1395	0.0500	1	0	0.590	0
2	1	196	0	2	2	0.1395	0.0500	0	0	0.718	0
2	1	197	0	1	1	0.1395	0.0500	0	1	0.545	8
2	1	198	1	1	3	0.1395	0.0500	1	1	0.581	77
2	1	199	0	2	1	0.1395	0.0500	1	0	0.728	0
2	1	200	0	2	2	0.1395	0.0500	0	1	0.548	8
2	1	201	0	2	3	0.1395	0.0500	0	1	0.557	8
2	1	202	1	2	3	0.1395	0.0500	1	0	1.028	0
2	1	203	1	2	3	0.1395	0.0500	1	1	2.106	50
2	1	204	1	2	2	0.1395	0.0500	0	1	1.140	50
2	1	205	0	1	1	0.1395	0.0500	0	1	0.615	7
2	1	206	1	2	2	0.1395	0.0500	0	1	0.481	87
2	1	207	1	1	3	0.1395	0.0500	1	1	0.625	72
2	1	208	1	1	3	0.1395	0.0500	0	1	0.489	86
2	1	209	0	1	3	0.1395	0.0500	1	1	0.537	8
2	1	210	1	1	1	0.1395	0.0500	0	1	0.422	93
2	1	211	0	2	1	0.1395	0.0500	1	0	1.355	0
2	1	212	1	1	3	0.1395	0.0500	0	1	0.439	91
2	1	213	0	2	2	0.1395	0.0500	1	1	0.621	7
2	1	214	1	1	3	0.1395	0.0500	1	1	0.817	53
2	1	215	1	2	2	0.1395	0.0500	1	0	0.690	0
2	1	216	0	1	3	0.1395	0.0500	0	1	0.541	8
2	1	217	1	1	1	0.1395	0.0500	0	1	0.440	91
2	1	218	1	1	3	0.1395	0.0500	1	1	0.535	82
2	1	219	1	1	1	0.1395	0.0500	0	1	0.443	91
2	1	220	1	2	2	0.1395	0.0500	0	0	0.600	0
2	1	221	0	1	1	0.1395	0.0500	1	1	0.572	8
2	1	222	0	1	1	0.1395	0.0500	1	1	0.435	9
2	1	223	0	2	2	0.1395	0.0500	0	1	0.675	7
2	1	224	0	1	3	0.1395	0.0500	1	1	0.477	9
2	1	225	1	2	2	0.1395	0.0500	0	1	0.700	65
2	1	226	0	1	1	0.1395	0.0500	0	1	0.492	9
2	1	227	1	1	1	0.1395	0.0500	0	1	0.498	85
2	1	228	0	1	3	0.1395	0.0500	1	1	0.485	9
2	1	229	1	2	3	0.1395	0.0500	0	1	0.714	64
2	1	230	0	1	1	0.1395	0.0500	0	1	0.448	9
2	1	231	0	2	3	0.1395	0.0500	1	0	0.716	0
2	1	232	1	2	3	0.1395	0.0500	1	0	1.341	0
2	1	233	0	2	2	0.1395	0.0500	0	1	0.830	5
2	1	234	0	2	3	0.1395	0.0500	0	1	0.762	6
2	1	235	1	2	2	0.1395	0.0500	1	1	0.564	79
2	1	236	1	1	2	0.1395	0.0500	0	1	0.562	79
2	1	237	1	1	1	0.1395	0.0500	0	1	0.497	85
2	1	238	1	1	1	0.1395	0.0500	1	1	0.540	81
2	1	239	0	1	3	0.1395	0.0500	1	1	0.456	9
2	1	240	1	1	3	0.1395	0.0500	0	1	0.408	94
2	1	241	1	2	2	0.1395	0.0500	0	1	0.640	71
2	1	242	1	2	3	0.1395	0.0500	0	1	0.533	82
2	1	243	0	1	1	0.1395	0.0500	0	1	0.619	7
2	1	244	1	2	2	0.1395	0.0500	0	1	0.575	78
2	1	245	0	2	3	0.1395	0.0500	0	0	0.733	0
2	1	246	0	1	1	0.1395	0.0500	0	1	0.585	8
2	1	247	0	2	3	0.1395	0.0500	0	1	0.535	8
2	1	248	1	1	1	0.1395	0.0500	0	1	0.503	85
2	1	249	0	2	2	0.1395	0.0500	0	1	0.515	8
2	1	250	0	2	3	0.1395	0.0500	1	1	0.594	8
2	1	251	0	2	3	0.1395	0.0500	1	1	0.521	8
2	1	252	1	1	2	0.1395	0.0500	0	1	0.594	76
2	1	253	1	1	3	0.1395	0.0500	0	1	0.541	81
2	1	254	0	1	3	0.1395	0.0500	0	1	0.478	9
2	1	255	1	2	1	0.1395	0.0500	0	1	0.694	66
2	1	256	1	2	3	0.1395	0.0500	0	1	0.456	89
2	1	257	0	1	3	0.1395	0.0500	1	1	0.540	8
2	1	258	0	2	3	0.1395	0.0500	0	1	0.631	7
2	1	259	0	1	3	0.1395	0.0500	0	1	0.512	8
2	1	260	1	2	3	0.1395	0.0500	0	1	0.458	89
2	1	261	1	2	1	0.1395	0.0500	0	1	0.397	95
2	1	262	1	2	3	0.1395	0.0500	0	1	0.395	96
2	1	263	1	1	3	0.1395	0.0500	0	1	0.496	85
2	1	264	0	2	3	0.1395	0.0500	0	1	0.542	8
2	1	265	0	2	3	0.1395	0.0500	0	1	0.523	8
2	1	266	0	1	1	0.1395	0.0500	1	1	0.606	7
2	1	267	1	1	3	0.1395	0.0500	1	1	0.482	87
2	1	268	1	1	1	0.1395	0.0500	1	1	0.469	88
2	1	269	1	1	3	0.1395	0.0500	0	1	0.509	84
2	1	270	0	1	3	0.1395	0.0500	0	1	0.399	10
2	1	271	0	1	3	0.1395	0.0500	0	1	0.349	10
2	1	272	0	2	1	0.1395	0.0500	0	1	0.551	8
2	1	273	0	2	3	0.1395	0.0500	0	1	0.584	8
2	1	274	0	1	3	0.1395	0.0500	1	1	0.475	9
2	1	275	0	2	2	0.1395	0.0500	0	1	0.513	8
2	1	276	1	2	2	0.1395	0.0500	1	1	0.665	69
2	1	277	0	2	2	0.1395	0.0500	0	1	0.503	8
2	1	278	0	1	1	0.1395	0.0500	1	1	0.513	8
2	1	279	0	1	1	0.1395	0.0500	1	1	0.637	7
2	1	280	1	2	2	0.1395	0.0500	1	1	0.555	79
2	1	281	1	1	2	0.1395	0.0500	0	1	0.417	93
2	1	282	0	2	2	0.1395	0.0500	0	1	0.527	8
2	1	283	0	2	2	0.1395	0.0500	0	1	0.645	7
2	1	284	1	2	3	0.1395	0.0500	1	1	0.576	77
2	1	285	1	2	2	0.1395	0.0500	1	1	0.512	84
2	1	286	0	1	3	0.1395	0.0500	0	1	0.822	5
2	1	287	1	1	3	0.1395	0.0500	0	1	0.537	81
2	1	288	1	2	2	0.1395	0.0500	1	1	0.524	83
2	1	289	1	1	3	0.1395	0.0500	0	1	0.495	86
2	1	290	0	2	2	0.1395	0.0500	0	0	0.654	0
2	1	291	0	1	3	0.1395	0.0500	0	1	0.488	9
2	1	292	1	2	3	0.1395	0.0500	1	1	0.941	50
2	1	293	1	2	3	0.1395	0.0500	0	1	0.522	83
2	1	294	0	1	1	0.1395	0.0500	1	1	0.754	6
2	1	295	1	1	3	0.1395	0.0500	0	1	0.379	97
2	1	296	0	2	2	0.1395	0.0500	1	1	0.518	8
2	1	297	1	2	3	0.1395	0.0500	1	1	0.508	84
2	1	298	1	2	2	0.1395	0.0500	1	1	0.945	50
2	1	299	1	1	1	0.1395	0.0500	1	0	0.557	0
2	1	300	1	1	1	0.1395	0.0500	0	1	0.491	86
2	1	301	1	2	3	0.1395	0.0500	0	1	0.514	84
2	1	302	0	1	2	0.1395	0.0500	0	1	0.596	8
2	1	303	0	2	2	0.1395	0.0500	1	0	0.791	0
2	1	304	1	1	3	0.1395	0.0500	1	1	0.747	60
2	1	305	0	1	2	0.1395	0.0500	1	1	0.663	7
2	1	306	1	2	3	0.1395	0.0500	1	0	0.794	0
2	1	307	0	1	3	0.1395	0.0500	1	1	0.612	7
2	1	308	0	2	2	0.1395	0.0500	1	1	0.544	8
2	1	309	0	1	3	0.1395	0.0500	0	1	0.473	9
2	1	310	1	1	3	0.1395	0.0500	0	1	0.430	92
2	1	311	1	2	3	0.1395	0.0500	1	1	0.676	67
2	1	312	1	1	1	0.1395	0.0500	1	1	0.606	74
2	1	313	0	1	3	0.1395	0.0500	0	1	0.436	9
2	1	314	0	1	3	0.1395	0.0500	0	1	0.419	9
2	1	315	1	2	1	0.1395	0.0500	1	0	1.038	0
2	1	316	1	2	2	0.1395	0.0500	1	1	0.593	76
2	1	317	1	1	1	0.1395	0.0500	0	1	0.564	79
2	1	318	0	1	1	0.1395	0.0500	0	1	0.495	9
2	1	319	0	1	1	0.1395	0.0500	1	1	0.546	8
2	1	320	1	1	3	0.1395	0.0500	0	0	0.501	0
2	1	321	0	1	3	0.1395	0.0500	0	1	0.524	8
2	1	322	1	2	2	0.1395	0.0500	1	1	0.548	80
2	1	323	1	1	1	0.1395	0.0500	1	1	0.476	87
2	1	324	1	1	2	0.1395	0.0500	1	1	0.516	83
2	1	325	1	2	2	0.1395	0.0500	1	1	0.630	72
2	1	326	1	2	3	0.1395	0.0500	1	1	0.794	56
2	1	327	0	1	2	0.1395	0.0500	1	1	0.534	8
2	1	328	0	2	3	0.1395	0.0500	1	1	0.705	6
2	1	329	1	1	3	0.1395	0.0500	0	1	0.435	92
2	1	330	0	1	1	0.1395	0.0500	1	1	0.537	8
2	1	331	0	2	2	0.1395	0.0500	1	1	0.872	5
2	1	332	1	1	3	0.1395	0.0500	1	1	0.649	70
2	1	333	0	1	1	0.1395	0.0500	1	0	0.502	0
2	1	334	0	2	3	0.1395	0.0500	1	1	0.577	8
2	1	335	1	2	2	0.1395	0.0500	1	1	0.521	83
2	1	336	1	1	1	0.1395	0.0500	1	1	0.864	50
2	1	337	1	2	2	0.1395	0.0500	1	0	1.129	0
2	1	338	1	1	1	0.1395	0.0500	1	1	0.533	82
2	1	339	0	1	1	0.1395	0.0500	0	1	0.835	5
2	1	340	1	2	3	0.1395	0.0500	0	1	0.969	50
2	1	341	0	2	2	0.1395	0.0500	0	1	0.612	7
2	1	342	0	2	2	0.1395	0.0500	1	1	0.459	9
2	1	343	0	2	3	0.1395	0.0500	0	1	0.714	6
2	1	344	0	2	3	0.1395	0.0500	0	1	0.474	9
2	1	345	1	2	3	0.1395	0.0500	0	1	0.593	76
2	1	346	1	2	3	0.1395	0.0500	1	1	0.846	50
2	1	347	0	1	3	0.1395	0.0500	0	1	0.557	8
2	1	348	0	1	1	0.1395	0.0500	1	1	0.670	7
2	1	349	1	1	3	0.1395	0.0500	1	1	0.495	86
2	1	350	1	1	3	0.1395	0.0500	1	1	0.589	76
2	1	351	1	2	1	0.1395	0.0500	0	1	0.666	68
2	1	352	0	2	3	0.1395	0.0500	0	1	0.524	8
2	1	353	1	1	1	0.1395	0.0500	0	1	0.535	81
2	1	354	0	2	3	0.1395	0.0500	1	1	0.711	6
2	1	355	0	2	2	0.1395	0.0500	1	1	0.537	8
2	1	356	0	2	2	0.1395	0.0500	1	1	0.527	8
2	1	357	0	1	2	0.1395	0.0500	0	1	0.710	6
2	1	358	1	1	1	0.1395	0.0500	0	1	0.418	93
2	1	359	1	1	3	0.1395	0.0500	1	1	0.723	63
2	1	360	1	2	2	0.1395	0.0500	0	1	1.132	50
2	1	361	0	1	3	0.1395	0.0500	1	1	0.504	8
2	1	362	1	2	3	0.1395	0.0500	1	1	0.686	66
2	1	363	0	2	2	0.1395	0.0500	0	1	0.429	9
2	1	364	0	1	2	0.1395	0.0500	0	1	0.467	9
2	1	365	0	2	3	0.1395	0.0500	0	1	0.989	5
2	1	366	1	1	1	0.1395	0.0500	0	1	0.520	83
2	1	367	0	1	3	0.1395	0.0500	1	1	0.536	8
2	1	368	0	2	3	0.1395	0.0500	0	1	0.698	7
2	1	369	1	1	3	0.1395	0.0500	0	1	0.470	88
2	1	370	0	2	3	0.1395	0.0500	1	0	0.489	0
2	1	371	0	1	3	0.1395	0.0500	0	1	0.428	9
2	1	372	1	2	3	0.1395	0.0500	0	1	0.544	81
2	1	373	1	1	3	0.1395	0.0500	1	1	0.526	82
2	1	374	1	1	1	0.1395	0.0500	1	1	0.531	82
2	1	375	0	1	1	0.1395	0.0500	1	1	0.487	9
2	1	376	0	2	3	0.1395	0.0500	0	0	0.772	0
2	1	377	0	2	2	0.1395	0.0500	1	0	0.966	0
2	1	378	0	1	1	0.1395	0.0500	1	1	1.152	5
2	1	379	0	1	2	0.1395	0.0500	1	1	0.549	8
2	1	380	0	2	2	0.1395	0.0500	1	0	0.479	0
2	1	381	1	2	2	0.1395	0.0500	0	1	0.507	84
2	1	382	0	1	1	0.1395	0.0500	1	1	0.377	10
2	1	383	1	1	3	0.1395	0.0500	0	1	0.459	89
2	1	384	0	2	1	0.1395	0.0500	1	0	0.707	0
2	1	385	1	1	3	0.1395	0.0500	0	1	0.456	89
2	1	386	0	2	2	0.1395	0.0500	1	1	0.553	8
2	1	387	1	1	3	0.1395	0.0500	0	1	0.594	76
2	1	388	0	2	2	0.1395	0.0500	1	1	0.605	7
2	1	389	0	1	3	0.1395	0.0500	1	1	0.562	8
2	1	390	0	2	2	0.1395	0.0500	1	0	0.534	0
2	1	391	1	2	2	0.1395	0.0500	1	0	0.624	0
2	1	392	0	1	1	0.1395	0.0500	1	1	0.635	7
2	1	393	1	2	2	0.1395	0.0500	0	1	0.742	61
2	1	394	1	2	2	0.1395	0.0500	1	0	0.855	0
2	1	395	1	2	3	0.1395	0.0500	0	0	1.411	0
2	1	396	0	2	3	0.1395	0.0500	1	0	0.624	0
2	1	397	1	2	3	0.1395	0.0500	0	1	1.226	50
2	1	398	1	1	1	0.1395	0.0500	0	1	0.483	87
2	1	399	1	2	2	0.1395	0.0500	0	1	0.646	70
2	1	400	1	1	3	0.1395	0.0500	1	1	0.447	90
2	1	401	1	1	3	0.1395	0.0500	1	1	0.422	93
2	1	402	1	1	1	0.1395	0.0500	0	1	0.420	93
2	1	403	1	2	3	0.1395	0.0500	0	1	0.571	78
2	1	404	0	1	1	0.1395	0.0500	0	1	0.447	9
2	1	405	1	2	3	0.1395	0.0500	1	1	0.575	77
2	1	406	1	2	1	0.1395	0.0500	1	1	0.531	82
2	1	407	0	2	2	0.1395	0.0500	1	1	0.795	6
2	1	408	0	2	3	0.1395	0.0500	0	0	0.726	0
2	1	409	0	2	2	0.1395	0.0500	0	1	0.696	7
2	1	410	0	1	1	0.1395	0.0500	0	1	0.462	9
2	1	411	1	2	3	0.1395	0.0500	1	0	0.445	0
2	1	412	1	2	3	0.1395	0.0500	1	1	0.663	69
2	1	413	1	1	1	0.1395	0.0500	0	1	0.574	78
2	1	414	1	2	2	0.1395	0.0500	0	0	0.720	0
2	1	415	1	1	3	0.1395	0.0500	0	1	0.481	87
2	1	416	1	2	2	0.1395	0.0500	0	1	0.459	89
2	1	417	1	1	3	0.1395	0.0500	1	1	0.552	80
2	1	418	1	2	2	0.1395	0.0500	1	1	0.455	89
2	1	419	0	2	2	0.1395	0.0500	1	0	0.660	0
2	1	420	1	2	2	0.1395	0.0500	1	1	0.438	91
2	1	421	0	2	2	0.1395	0.0500	0	1	0.664	7
2	1	422	1	2	2	0.1395	0.0500	1	1	0.468	88
2	1	423	1	1	3	0.1395	0.0500	1	1	0.450	90
2	1	424	1	1	1	0.1395	0.0500	1	1	0.497	85
2	1	425	1	1	3	0.1395	0.0500	0	1	0.499	85
2	1	426	0	2	1	0.1395	0.0500	1	1	0.703	6
2	1	427	1	2	2	0.1395	0.0500	0	1	0.537	81
2	1	428	0	2	1	0.1395	0.0500	0	1	0.624	7
2	1	429	1	2	2	0.1395	0.0500	1	1	0.497	85
2	1	430	0	2	3	0.1395	0.0500	1	1	0.573	8
2	1	431	1	1	3	0.1395	0.0500	1	1	0.458	89
2	1	432	1	2	1	0.1395	0.0500	0	1	0.956	50
2	1	433	0	1	1	0.1395	0.0500	0	1	0.833	5
2	1	434	1	1	3	0.1395	0.0500	1	1	0.474	88
2	1	435	0	2	2	0.1395	0.0500	1	0	1.019	0
2	1	436	1	1	3	0.1395	0.0500	0	1	0.458	89
2	1	437	1	2	2	0.1395	0.0500	1	1	0.470	88
2	1	438	0	1	1	0.1395	0.0500	0	1	0.514	8
2	1	439	0	1	3	0.1395	0.0500	0	1	0.392	10
2	1	440	0	1	3	0.1395	0.0500	0	1	0.408	9
2	1	441	0	1	3	0.1395	0.0500	0	1	0.395	10
2	1	442	0	2	2	0.1395	0.0500	0	1	0.672	7
2	1	443	0	2	2	0.1395	0.0500	0	1	0.760	6
2	1	444	1	1	2	0.1395	0.0500	1	1	0.521	83
2	1	445	0	1	3	0.1395	0.0500	0	1	0.474	9
2	1	446	0	2	3	0.1395	0.0500	1	1	0.856	5
2	1	447	1	2	2	0.1395	0.0500	1	1	0.819	53
2	1	448	0	1	3	0.1395	0.0500	1	1	0.510	8
2	1	449	1	2	2	0.1395	0.0500	0	1	0.658	69
2	1	450	1	2	3	0.1395	0.0500	1	1	0.694	66
2	1	451	0	2	2	0.1395	0.0500	0	1	0.627	7
2	1	452	0	1	3	0.1395	0.0500	1	1	0.624	7
2	1	453	0	2	3	0.1395	0.0500	1	0	0.535	0
2	1	454	1	1	1	0.1395	0.0500	0	1	0.496	85
2	1	455	1	2	3	0.1395	0.0500	0	1	0.642	71
2	1	456	1	2	2	0.1395	0.0500	1	1	0.518	83
2	1	457	1	2	1	0.1395	0.0500	0	1	0.781	57
2	1	458	0	2	3	0.1395	0.0500	0	1	0.499	9
2	1	459	0	1	3	0.1395	0.0500	0	1	0.545	8
2	1	460	0	2	3	0.1395	0.0500	0	1	0.549	8
2	1	461	1	2	2	0.1395	0.0500	0	1	0.651	70
2	1	462	0	2	2	0.1395	0.0500	0	1	0.711	6
2	1	463	1	1	3	0.1395	0.0500	0	1	0.517	83
2	1	464	0	1	1	0.1395	0.0500	1	1	0.515	8
2	1	465	0	1	3	0.1395	0.0500	1	1	0.567	8
2	1	466	1	1	1	0.1395	0.0500	1	1	0.729	62
2	1	467	1	1	1	0.1395	0.0500	1	1	0.466	88
2	1	468	0	2	3	0.1395	0.0500	1	0	0.714	0
2	1	469	0	2	3	0.1395	0.0500	1	1	0.516	8
2	1	470	0	2	3	0.1395	0.0500	0	0	0.781	0
2	1	471	0	2	2	0.1395	0.0500	0	1	0.581	8
2	1	472	0	1	3	0.1395	0.0500	1	1	0.506	8
2	1	473	0	2	1	0.1395	0.0500	1	1	0.447	9
2	1	474	1	2	3	0.1395	0.0500	1	1	0.612	74
2	1	475	0	2	3	0.1395	0.0500	0	1	0.766	6
2	1	476	0	1	3	0.1395	0.0500	1	1	0.514	8
2	1	477	0	1	1	0.1395	0.0500	1	1	0.668	7
2	1	478	1	2	3	0.1395	0.0500	0	1	0.688	66
2	1	479	0	1	1	0.1395	0.0500	0	1	0.790	6
2	1	480	0	2	3	0.1395	0.0500	1	1	0.548	8
2	1	481	1	2	2	0.1395	0.0500	1	1	0.490	86
2	1	482	1	1	2	0.1395	0.0500	0	1	0.550	80
2	1	483	0	1	1	0.1395	0.0500	0	1	0.514	8
2	1	484	1	1	3	0.1395	0.0500	0	1	0.434	92
2	1	485	0	2	2	0.1395	0.0500	1	1	0.557	8
2	1	486	1	1	1	0.1395	0.0500	0	1	0.526	82
2	1	487	1	1	1	0.1395	0.0500	1	1	0.496	85
2	1	488	0	1	1	0.1395	0.0500	1	1	0.430	9
2	1	489	0	2	2	0.1395	0.0500	1	1	0.647	7
2	1	490	0	2	2	0.1395	0.0500	1	0	0.916	0
2	1	491	1	1	1	0.1395	0.0500	1	0	0.923	0
2	1	492	1	2	1	0.1395	0.0500	0	0	0.625	0
2	1	493	1	2	1	0.1395	0.0500	1	1	0.613	74
2	1	494	0	2	3	0.1395	0.0500	1	0	0.676	0
2	1	495	1	2	2	0.1395	0.0500	0	1	2.015	50
2	1	496	1	1	3	0.1395	0.0500	1	1	0.516	83
2	1	497	1	1	1	0.1395	0.0500	0	1	0.631	72
2	1	498	1	2	2	0.1395	0.0500	1	0	0.789	0
2	1	499	1	1	1	0.1395	0.0500	1	1	0.631	72
2	1	500	0	2	2	0.1395	0.0500	0	1	0.541	8
2	1	501	0	1	1	0.1395	0.0500	0	1	0.579	8
2	1	502	1	2	3	0.1395	0.0500	1	1	0.535	82
2	1	503	0	1	3	0.1395	0.0500	0	1	0.578	8
2	1	504	0	1	1	0.1395	0.0500	0	1	0.517	8
2	1	505	0	2	3	0.1395	0.0500	1	0	0.530	0
2	1	506	1	2	3	0.1395	0.0500	1	1	0.583	77
2	1	507	1	1	3	0.1395	0.0500	0	1	0.646	70
2	1	508	1	1	2	0.1395	0.0500	0	1	0.524	83
2	1	509	0	1	1	0.1395	0.0500	0	1	0.677	7
2	1	510	1	1	3	0.1395	0.0500	1	1	0.650	70
2	1	511	1	2	2	0.1395	0.0500	0	1	0.721	63
2	1	512	1	2	2	0.1395	0.0500	1	0	0.759	0
2	1	513	1	2	3	0.1395	0.0500	1	1	0.657	69
2	1	514	1	2	2	0.1395	0.0500	0	0	0.553	0
2	1	515	0	2	1	0.1395	0.0500	1	0	0.710	0
2	1	516	0	1	3	0.1395	0.0500	0	1	0.433	9
2	1	517	0	2	3	0.1395	0.0500	0	1	0.725	6
2	1	518	0	1	2	0.1395	0.0500	1	1	0.548	8
2	1	519	1	2	3	0.1395	0.0500	0	1	0.603	75
2	1	520	1	1	3	0.1395	0.0500	0	1	0.480	87
2	1	521	1	2	3	0.1395	0.0500	0	1	0.523	83
2	1	522	0	1	1	0.1395	0.0500	1	1	0.482	9
2	1	523	1	2	1	0.1395	0.0500	1	1	0.497	85
2	1	524	1	1	3	0.1395	0.0500	0	1	0.420	93
2	1	525	1	1	3	0.1395	0.0500	1	1	0.565	79
2	1	526	0	2	3	0.1395	0.0500	0	1	0.622	7
2	1	527	1	2	3	0.1395	0.0500	1	1	0.896	50
2	1	528	0	1	3	0.1395	0.0500	0	0	0.588	0
2	1	529	0	1	3	0.1395	0.0500	1	0	1.434	0
2	1	530	1	2	3	0.1395	0.0500	0	1	0.734	62
2	1	531	0	2	2	0.1395	0.0500	1	1	0.759	6
2	1	532	0	1	3	0.1395	0.0500	0	1	0.648	7
2	1	533	1	1	3	0.1395	0.0500	1	1	0.547	80
2	1	534	0	1	3	0.1395	0.0500	0	1	0.489	9
2	1	535	1	1	1	0.1395	0.0500	0	0	0.412	0
2	1	536	1	2	3	0.1395	0.0500	0	1	0.576	77
2	1	537	0	1	2	0.1395	0.0500	1	1	0.617	7
2	1	538	0	2	2	0.1395	0.0500	1	1	0.601	7
2	1	539	1	2	3	0.1395	0.0500	0	1	0.547	80
2	1	540	1	1	1	0.1395	0.0500	1	1	0.589	76
2	1	541	1	1	2	0.1395	0.0500	0	1	0.420	93
2	1	542	0	1	3	0.1395	0.0500	1	1	0.517	8
2	1	543	1	1	3	0.1395	0.0500	0	1	0.401	95
2	1	544	0	2	2	0.1395	0.0500	1	0	0.624	0
2	1	545	1	1	1	0.1395	0.0500	0	1	0.501	85
2	1	546	0	1	1	0.1395	0.0500	1	1	0.525	8
2	1	547	0	2	2	0.1395	0.0500	0	1	0.735	6
2	1	548	0	2	2	0.1395	0.0500	1	1	0.806	5
2	1	549	0	2	2	0.1395	0.0500	0	1	0.496	9
2	1	550	0	1	3	0.1395	0.0500	1	1	0.511	8
2	1	551	1	2	2	0.1395	0.0500	0	1	0.547	80
2	1	552	1	2	2	0.1395	0.0500	0	1	0.469	88
2	1	553	0	2	2	0.1395	0.0500	1	0	0.535	0
2	1	554	1	1	3	0.1395	0.0500	0	1	1.034	50
2	1	555	0	2	3	0.1395	0.0500	0	1	0.861	5
2	1	556	0	1	1	0.1395	0.0500	1	1	0.584	8
2	1	557	1	2	1	0.1395	0.0500	1	1	0.783	57
2	1	558	1	2	2	0.1395	0.0500	1	1	0.882	50
2	1	559	0	2	2	0.1395	0.0500	1	1	0.631	7
2	1	560	0	1	2	0.1395	0.0500	0	1	0.500	9
2	1	561	1	1	3	0.1395	0.0500	1	1	0.527	82
2	1	562	1	1	1	0.1395	0.0500	0	1	0.484	87
2	1	563	1	2	2	0.1395	0.0500	0	1	0.811	54
2	1	564	1	2	2	0.1395	0.0500	1	1	0.675	67
2	1	565	0	1	1	0.1395	0.0500	1	1	0.504	8
2	1	566	0	1	1	0.1395	0.0500	1	1	0.432	9
2	1	567	1	2	3	0.1395	0.0500	1	1	0.652	70
2	1	568	1	1	1	0.1395	0.0500	0	1	0.636	71
2	1	569	0	2	3	0.1395	0.0500	0	0	1.139	0
2	1	570	0	1	1	0.1395	0.0500	0	1	0.524	8
2	1	571	0	1	3	0.1395	0.0500	1	1	0.702	6
2	1	572	1	1	1	0.1395	0.0500	0	1	0.512	84
2	1	573	1	2	2	0.1395	0.0500	1	1	0.911	50
2	1	574	1	1	1	0.1395	0.0500	0	1	0.567	78
2	1	575	1	1	3	0.1395	0.0500	1	1	1.040	50
2	1	576	1	1	3	0.1395	0.0500	1	1	0.537	81
2	1	577	1	1	3	0.1395	0.0500	1	1	0.532	82
2	1	578	0	1	3	0.1395	0.0500	0	1	0.473	9
2	1	579	0	1	1	0.1395	0.0500	0	1	0.622	7
2	1	580	0	1	1	0.1395	0.0500	1	1	0.720	6
2	1	581	1	2	3	0.1395	0.0500	0	1	0.703	65
2	1	582	1	1	3	0.1395	0.0500	1	1	0.438	91
2	1	583	0	2	3	0.1395	0.0500	1	1	0.720	6
2	1	584	1	1	1	0.1395	0.0500	0	1	0.490	86
2	1	585	1	1	1	0.1395	0.0500	1	1	0.640	71
2	1	586	1	1	1	0.1395	0.0500	0	1	0.481	87
2	1	587	1	2	2	0.1395	0.0500	0	1	0.632	72
2	1	588	1	1	2	0.1395	0.0500	1	1	0.425	93
2	1	589	1	2	2	0.1395	0.0500	1	0	0.476	0
2	1	590	1	1	1	0.1395	0.0500	0	1	0.476	87
2	1	591	0	1	3	0.1395	0.0500	0	1	0.820	5
2	1	592	0	1	1	0.1395	0.0500	0	1	0.438	9
2	1	593	0	2	2	0.1395	0.0500	0	1	0.592	8
2	1	594	0	2	2	0.1395	0.0500	0	0	0.743	0
2	1	595	1	2	2	0.1395	0.0500	0	1	0.709	64
2	1	596	1	1	1	0.1395	0.0500	1	1	0.803	55
2	1	597	0	2	3	0.1395	0.0500	0	1	0.623	7
2	1	598	1	2	3	0.1395	0.0500	1	1	0.510	84
2	1	599	0	1	1	0.1395	0.0500	1	1	0.622	7
2	1	600	0	2	3	0.1395	0.0500	0	0	0.730	0
2	1	601	0	2	3	0.1395	0.0500	0	1	0.587	8
2	1	602	1	2	3	0.1395	0.0500	0	1	0.467	88
2	1	603	1	1	3	0.1395	0.0500	0	1	0.487	86
2	1	604	1	2	3	0.1395	0.0500	1	1	0.886	50
2	1	605	0	2	1	0.1395	0.0500	1	1	0.648	7
2	1	606	0	2	3	0.1395	0.0500	1	1	0.481	9
2	1	607	1	1	3	0.1395	0.0500	0	1	0.733	62
2	1	608	0	2	3	0.1395	0.0500	1	1	0.591	8
2	1	609	0	1	1	0.1395	0.0500	0	1	0.715	6
2	1	610	1	1	2	0.1395	0.0500	0	1	0.488	86
2	1	611	1	1	3	0.1395	0.0500	0	1	0.386	96
2	1	612	0	2	1	0.1395	0.0500	0	0	0.689	0
2	1	613	1	2	2	0.1395	0.0500	0	1	0.438	91
2	1	614	0	1	3	0.1395	0.0500	0	1	0.448	9
2	1	615	1	1	1	0.1395	0.0500	1	1	0.588	76
2	1	616	1	2	3	0.1395	0.0500	1	1	0.541	81
2	1	617	1	1	1	0.1395	0.0500	0	1	0.692	66
2	1	618	1	2	2	0.1395	0.0500	0	1	0.528	82
2	1	619	0	2	3	0.1395	0.0500	0	1	0.600	7
2	1	620	1	2	1	0.1395	0.0500	1	1	0.528	82
2	1	621	0	1	1	0.1395	0.0500	0	1	0.435	9
2	1	622	1	2	1	0.1395	0.0500	0	1	0.439	91
2	1	623	0	1	3	0.1395	0.0500	1	1	0.663	7
2	1	624	1	2	3	0.1395	0.0500	0	1	0.426	92
2	1	625	0	2	3	0.1395	0.0500	1	1	0.647	7
2	1	626	0	1	3	0.1395	0.0500	0	1	0.486	9
2	1	627	0	2	3	0.1395	0.0500	0	1	0.687	7
2	1	628	0	1	3	0.1395	0.0500	0	1	0.568	8
2	1	629	1	1	1	0.1395	0.0500	0	1	0.525	83
2	1	630	0	1	1	0.1395	0.0500	1	1	0.525	8
2	1	631	0	2	1	0.1395	0.0500	0	1	0.996	5
2	1	632	0	2	2	0.1395	0.0500	1	1	0.664	7
2	1	633	1	2	2	0.1395	0.0500	1	0	0.446	0
2	1	634	0	1	2	0.1395	0.0500	1	0	0.694	0
2	1	635	0	1	1	0.1395	0.0500	0	1	0.510	8
2	1	636	1	2	3	0.1395	0.0500	0	1	0.485	86
2	1	637	0	2	1	0.1395	0.0500	0	0	0.669	0
2	1	638	0	2	3	0.1395	0.0500	0	1	0.538	8
2	1	639	1	1	1	0.1395	0.0500	1	1	0.535	82
2	1	640	0	1	1	0.1395	0.0500	1	1	0.782	6
2	1	641	1	2	2	0.1395	0.0500	1	1	0.624	73
2	1	642	1	1	1	0.1395	0.0500	1	1	0.886	50
2	1	643	1	1	3	0.1395	0.0500	1	1	0.595	75
2	1	644	1	1	2	0.1395	0.0500	1	1	0.765	58
2	1	645	0	1	3	0.1395	0.0500	1	1	0.567	8
2	1	646	1	1	2	0.1395	0.0500	1	1	0.703	65
2	1	647	1	1	2	0.1395	0.0500	1	1	0.475	88
2	1	648	1	2	3	0.1395	0.0500	0	1	0.764	59
2	1	649	0	1	1	0.1395	0.0500	1	1	0.711	6
2	1	650	0	1	3	0.1395	0.0500	0	1	0.475	9
2	1	651	1	2	3	0.1395	0.0500	1	0	0.495	0
2	1	652	1	2	2	0.1395	0.0500	0	1	0.467	88
2	1	653	0	1	1	0.1395	0.0500	0	1	0.505	8
2	1	654	0	2	3	0.1395	0.0500	0	0	0.669	0
2	1	655	0	2	3	0.1395	0.0500	0	1	0.663	7
2	1	656	0	2	2	0.1395	0.0500	0	1	0.570	8
2	1	657	0	2	3	0.1395	0.0500	1	0	0.769	0
2	1	658	0	2	2	0.1395	0.0500	0	1	0.890	5
2	1	659	0	1	1	0.1395	0.0500	1	1	0.524	8
2	1	660	0	2	2	0.1395	0.0500	0	1	0.766	6
2	1	661	0	1	3	0.1395	0.0500	1	1	0.411	9
2	1	662	0	1	1	0.1395	0.0500	1	1	0.438	9
2	1	663	1	1	3	0.1395	0.0500	1	1	0.455	89
2	1	664	0	1	3	0.1395	0.0500	1	1	0.577	8
2	1	665	1	2	3	0.1395	0.0500	0	1	0.747	60
2	1	666	1	1	1	0.1395	0.0500	1	1	0.542	81
2	1	667	1	1	1	0.1395	0.0500	1	1	0.559	79
2	1	668	1	1	3	0.1395	0.0500	0	1	0.445	90
2	1	669	1	1	1	0.1395	0.0500	1	1	0.419	93
2	1	670	0	1	1	0.1395	0.0500	0	1	0.435	9
2	1	671	0	2	1	0.1395	0.0500	0	1	0.635	7
2	1	672	0	2	2	0.1395	0.0500	0	1	0.438	9
2	1	673	0	1	1	0.1395	0.0500	0	0	0.512	0
2	1	674	0	2	3	0.1395	0.0500	1	0	0.487	0
2	1	675	0	1	3	0.1395	0.0500	1	1	0.600	7
2	1	676	1	1	3	0.1395	0.0500	1	1	0.563	79
2	1	677	1	1	1	0.1395	0.0500	0	1	0.538	81
2	1	678	0	2	2	0.1395	0.0500	1	0	0.706	0
2	1	679	0	1	1	0.1395	0.0500	1	1	0.730	6
2	1	680	0	1	3	0.1395	0.0500	1	1	0.604	7
2	1	681	0	1	1	0.1395	0.0500	0	1	0.469	9
2	1	682	1	1	1	0.1395	0.0500	0	1	0.405	95
2	1	683	1	2	2	0.1395	0.0500	1	1	0.792	56
2	1	684	0	2	3	0.1395	0.0500	1	1	0.460	9
2	1	685	1	1	2	0.1395	0.0500	0	1	0.504	85
2	1	686	0	1	3	0.1395	0.0500	1	1	0.515	8
2	1	687	1	1	1	0.1395	0.0500	1	1	0.543	81
2	1	688	0	1	2	0.1395	0.0500	0	1	0.406	9
2	1	689	1	2	3	0.1395	0.0500	1	0	0.588	0
2	1	690	1	2	3	0.1395	0.0500	0	1	0.535	82
2	1	691	1	2	2	0.1395	0.0500	0	1	0.558	79
2	1	692	1	1	3	0.1395	0.0500	0	1	0.726	62
2	1	693	0	1	3	0.1395	0.0500	0	1	0.516	8
2	1	694	1	1	1	0.1395	0.0500	1	1	0.806	54
2	1	695	0	2	2	0.1395	0.0500	1	1	0.735	6
2	1	696	0	2	2	0.1395	0.0500	0	1	0.564	8
2	1	697	0	1	3	0.1395	0.0500	0	1	0.447	9
2	1	698	1	1	1	0.1395	0.0500	1	1	0.436	91
2	1	699	1	2	2	0.1395	0.0500	1	1	0.647	70
2	1	700	0	2	3	0.1395	0.0500	1	1	0.543	8
2	1	701	1	2	3	0.1395	0.0500	1	1	0.443	91
2	1	702	1	2	3	0.1395	0.0500	1	1	0.548	80
2	1	703	1	2	1	0.1395	0.0500	0	1	0.741	61
2	1	704	1	2	3	0.1395	0.0500	1	1	0.691	66
2	1	705	0	1	2	0.1395	0.0500	0	1	0.410	9
2	1	706	1	1	1	0.1395	0.0500	1	1	0.536	81
2	1	707	0	2	2	0.1395	0.0500	0	1	0.519	8
2	1	708	0	1	3	0.1395	0.0500	1	1	0.444	9
2	1	709	0	1	2	0.1395	0.0500	0	1	0.420	9
2	1	710	1	1	3	0.1395	0.0500	0	1	0.427	92
2	1	711	0	2	3	0.1395	0.0500	1	0	0.713	0
2	1	712	0	2	3	0.1395	0.0500	1	0	0.763	0
2	1	713	0	2	2	0.1395	0.0500	0	1	0.583	8
2	1	714	0	1	3	0.1395	0.0500	0	1	0.696	7
2	1	715	1	2	3	0.1395	0.0500	0	0	0.548	0
2	1	716	1	1	3	0.1395	0.0500	1	1	0.528	82
2	1	717	1	2	3	0.1395	0.0500	0	1	0.607	74
2	1	718	0	1	2	0.1395	0.0500	1	1	0.504	8
2	1	719	1	2	3	0.1395	0.0500	1	1	0.755	59
2	1	720	0	1	1	0.1395	0.0500	0	1	0.499	9
