sub	sess	t	loc	co1	co2	or	resp	rt
3	1	1	2	1.0000	1.0000	1	1	2.126
3	1	2	2	1.0000	1.0000	1	1	0.916
3	1	3	2	1.0000	1.0000	1	1	1.194
3	1	4	2	1.0000	1.0000	1	0	0.902
3	1	5	1	1.0000	1.0000	0	1	1.035
3	1	6	1	1.0000	1.0000	1	1	1.348
3	1	7	1	1.0000	1.0000	0	1	0.822
3	1	8	2	1.0000	1.0000	1	1	0.674
3	1	9	2	1.0000	1.0000	0	1	0.922
3	1	10	1	1.0000	1.0000	0	1	0.980
3	1	11	1	1.0000	1.0000	1	1	0.693
3	1	12	1	1.0000	1.0000	1	1	0.706
3	1	13	1	1.0000	1.0000	0	1	0.668
3	1	14	1	1.0000	1.0000	0	1	0.601
3	1	15	1	1.0000	1.0000	1	1	0.620
3	1	16	1	1.0000	1.0000	1	1	0.522
3	1	17	1	1.0000	1.0000	1	1	0.542
3	1	18	2	1.0000	1.0000	0	1	0.508
3	1	19	2	1.0000	1.0000	0	1	0.629
3	1	20	2	1.0000	1.0000	0	1	0.522
3	1	21	1	1.0000	1.0000	0	0	0.999
3	1	22	2	1.0000	1.0000	1	1	1.068
3	1	23	1	1.0000	1.0000	1	1	1.373
3	1	24	2	1.0000	1.0000	0	1	1.103
3	1	25	1	1.0000	1.0000	1	1	2.119
3	1	26	2	1.0000	1.0000	1	0	1.640
3	1	27	2	1.0000	1.0000	0	0	1.276
3	1	28	1	1.0000	1.0000	0	1	1.552
3	1	29	1	0.2500	0.2500	1	1	1.552
3	1	30	2	0.2629	0.2629	0	1	1.552
3	1	31	2	0.2758	0.2758	0	1	1.552
3	1	32	2	0.2887	0.2887	0	1	1.552
3	1	33	1	0.3016	0.3016	0	1	1.552
3	1	34	2	0.3145	0.3145	1	1	1.552
3	1	35	2	0.3274	0.3274	0	1	1.552
3	1	36	1	0.3403	0.3403	1	1	1.552
3	1	37	2	0.3532	0.3532	0	1	1.552
3	1	38	2	0.3661	0.3661	0	1	1.552
3	1	39	1	0.3790	0.3790	0	1	1.552
3	1	40	1	0.3919	0.3919	1	1	1.552
3	1	41	2	0.4048	0.4048	0	1	1.552
3	1	42	1	0.4177	0.4177	1	1	1.552
3	1	43	1	0.4306	0.4306	1	1	1.552
3	1	44	1	0.4435	0.4435	0	1	1.552
3	1	45	1	0.4565	0.4565	0	1	1.552
3	1	46	2	0.4694	0.4694	1	1	1.552
3	1	47	2	0.4823	0.4823	1	1	1.552
3	1	48	2	0.4952	0.4952	0	1	1.552
3	1	49	2	0.5081	0.5081	1	1	1.552
3	1	50	1	0.5210	0.5210	1	1	1.552
3	1	51	2	0.5339	0.5339	1	1	1.552
3	1	52	1	0.5468	0.5468	1	1	1.552
3	1	53	2	0.5597	0.5597	1	1	1.552
3	1	54	1	0.5726	0.5726	0	1	1.552
3	1	55	1	0.5855	0.5855	1	1	1.552
3	1	56	2	0.5984	0.5984	1	1	1.552
3	1	57	2	0.6113	0.6113	1	1	1.552
3	1	58	1	0.6242	0.6242	1	1	1.552
3	1	59	1	0.6371	0.6371	0	1	1.552
3	1	60	2	0.6500	0.6500	1	1	1.552
3	1	61	2	0.2500	0.2500	0	1	1.552
3	1	62	1	0.2629	0.2629	0	1	1.552
3	1	63	1	0.2758	0.2758	0	1	1.552
3	1	64	2	0.2887	0.2887	0	1	1.552
3	1	65	1	0.3016	0.3016	1	1	1.552
3	1	66	2	0.3145	0.3145	0	1	1.552
3	1	67	2	0.3274	0.3274	1	1	1.552
3	1	68	2	0.3403	0.3403	1	1	1.552
3	1	69	1	0.3532	0.3532	1	1	1.552
3	1	70	2	0.3661	0.3661	1	1	1.552
3	1	71	1	0.3790	0.3790	1	1	1.552
3	1	72	1	0.3919	0.3919	0	1	1.552
3	1	73	2	0.4048	0.4048	0	1	1.552
3	1	74	2	0.4177	0.4177	1	1	1.552
3	1	75	2	0.4306	0.4306	0	1	1.552
3	1	76	1	0.4435	0.4435	0	1	1.552
3	1	77	2	0.4565	0.4565	1	1	1.552
3	1	78	1	0.4694	0.4694	0	1	1.552
3	1	79	1	0.4823	0.4823	1	1	1.552
3	1	80	1	0.4952	0.4952	0	1	1.552
3	1	81	2	0.5081	0.5081	0	1	1.552
3	1	82	1	0.5210	0.5210	0	1	1.552
3	1	83	2	0.5339	0.5339	1	1	1.552
3	1	84	1	0.5468	0.5468	0	1	1.552
3	1	85	1	0.5597	0.5597	1	1	1.552
3	1	86	1	0.5726	0.5726	0	1	1.552
3	1	87	2	0.5855	0.5855	1	1	1.552
3	1	88	1	0.5984	0.5984	1	1	1.552
3	1	89	1	0.6113	0.6113	1	1	1.552
3	1	90	1	0.6242	0.6242	0	1	1.552
3	1	91	2	0.6371	0.6371	0	1	1.552
3	1	92	2	0.6500	0.6500	0	1	1.552
3	1	93	2	0.6242	0.5566	1	1	1.552
3	1	94	2	0.6242	0.5810	1	1	1.552
3	1	95	2	0.6242	0.6058	1	1	1.552
3	1	96	1	0.7389	0.6058	1	1	1.552
3	1	97	2	0.7389	0.5974	0	1	1.552
3	1	98	2	0.7389	0.5895	1	1	1.552
3	1	99	1	0.7679	0.5895	0	1	1.552
3	1	100	2	0.7679	0.5823	0	1	1.552
3	1	101	2	0.7679	0.5754	0	1	1.552
3	1	102	1	0.7592	0.5754	1	1	1.552
3	1	103	1	0.7848	0.5754	0	1	1.552
3	1	104	1	0.7772	0.5754	1	1	1.552
3	1	105	1	0.8000	0.5754	0	1	1.552
3	1	106	1	0.8196	0.5754	0	1	1.552
3	1	107	1	0.8360	0.5754	0	1	1.552
3	1	108	1	0.8314	0.5754	0	1	1.552
3	1	109	2	0.8314	0.5960	0	1	1.552
3	1	110	1	0.8267	0.5960	1	1	1.552
3	1	111	1	0.8411	0.5960	1	1	1.552
3	1	112	1	0.8524	0.5960	1	1	1.552
3	1	113	1	0.8612	0.5960	1	1	1.552
3	1	114	1	0.8680	0.5960	1	1	1.552
3	1	115	1	0.8733	0.5960	0	1	1.552
3	1	116	1	0.8773	0.5960	0	1	1.552
3	1	117	2	0.8773	0.6177	0	1	1.552
3	1	118	1	0.8806	0.6177	1	1	1.552
3	1	119	2	0.8806	0.6403	0	1	1.552
3	1	120	1	0.8798	0.6403	1	1	1.552
3	1	121	1	0.8823	0.6403	1	1	1.552
3	1	122	2	0.8823	0.6328	1	1	1.552
3	1	123	2	0.8823	0.6257	0	1	1.552
3	1	124	2	0.8823	0.6190	0	1	1.552
3	1	125	1	0.8816	0.6190	0	1	1.552
3	1	126	1	0.8837	0.6190	1	1	1.552
3	1	127	2	0.8837	0.6127	0	1	1.552
3	1	128	1	0.8854	0.6127	0	1	1.552
3	1	129	2	0.8854	0.6069	1	1	1.552
3	1	130	1	0.8869	0.6069	0	1	1.552
3	1	131	1	0.8883	0.6069	0	1	1.552
3	1	132	2	0.8883	0.6013	0	1	1.552
3	1	133	2	0.8883	0.5961	1	1	1.552
3	1	134	1	0.8879	0.5961	0	1	1.552
3	1	135	2	0.8879	0.6118	1	1	1.552
3	1	136	2	0.8879	0.6065	0	1	1.552
3	1	137	2	0.8879	0.6223	1	1	1.552
3	1	138	2	0.8879	0.6383	0	1	1.552
3	1	139	2	0.8879	0.6560	1	1	1.552
3	1	140	2	0.8879	0.6499	0	1	1.552
3	1	141	2	0.8879	0.6674	1	1	1.552
3	1	142	1	0.8891	0.6674	1	1	1.552
3	1	143	1	0.8902	0.6674	1	1	1.552
3	1	144	2	0.8902	0.6864	1	1	1.552
3	1	145	2	0.8902	0.7068	1	1	1.552
3	1	146	1	0.8908	0.7068	0	1	1.552
3	1	147	1	0.8913	0.7068	1	1	1.552
3	1	148	2	0.8913	0.6999	1	1	1.552
3	1	149	1	0.8918	0.6999	0	1	1.552
3	1	150	2	0.8918	0.7196	1	1	1.552
3	1	151	2	0.8918	0.7402	1	1	1.552
3	1	152	2	0.8918	0.7612	0	1	1.552
3	1	153	2	0.8918	0.7544	0	1	1.552
3	1	154	1	0.8916	0.7544	0	1	1.552
3	1	155	2	0.8916	0.7739	0	1	1.552
3	1	156	1	0.8915	0.7739	1	1	1.552
