sub	sess	t	rew	loc	cue	co1	co2	or	resp	rt	rew_tot
2	1	1	1	1	3	0.6968	0.4046	1	0	0.574	0
2	1	2	1	1	1	0.6968	0.4046	1	1	0.580	77
2	1	3	0	2	2	0.6968	0.4046	0	1	0.567	8
2	1	4	1	2	2	0.6968	0.4046	1	1	0.577	77
2	1	5	1	1	3	0.6968	0.4046	1	1	0.529	82
2	1	6	1	2	1	0.6968	0.4046	1	1	0.706	64
2	1	7	1	2	1	0.6968	0.4046	0	1	0.513	84
2	1	8	1	2	2	0.6968	0.4046	0	1	0.398	95
2	1	9	0	1	1	0.6968	0.4046	0	1	0.695	7
2	1	10	1	2	1	0.6968	0.4046	1	1	0.624	73
2	1	11	1	2	1	0.6968	0.4046	1	0	0.489	0
2	1	12	1	1	1	0.6968	0.4046	0	1	0.539	81
2	1	13	0	2	1	0.6968	0.4046	1	0	0.795	0
2	1	14	1	1	3	0.6968	0.4046	1	1	0.476	87
2	1	15	1	1	1	0.6968	0.4046	0	1	0.695	66
2	1	16	0	2	2	0.6968	0.4046	0	1	0.500	8
2	1	17	0	2	2	0.6968	0.4046	1	0	0.628	0
2	1	18	0	1	3	0.6968	0.4046	1	1	0.434	9
2	1	19	1	1	2	0.6968	0.4046	1	0	1.084	0
2	1	20	1	2	1	0.6968	0.4046	0	1	0.465	89
2	1	21	0	2	1	0.6968	0.4046	1	1	0.752	6
2	1	22	1	2	1	0.6968	0.4046	1	1	0.633	72
2	1	23	0	1	3	0.6968	0.4046	0	1	0.567	8
2	1	24	1	2	1	0.6968	0.4046	0	1	0.507	84
2	1	25	0	1	3	0.6968	0.4046	0	1	0.505	8
2	1	26	1	1	1	0.6968	0.4046	1	1	0.790	56
2	1	27	0	2	1	0.6968	0.4046	1	0	0.624	0
2	1	28	1	2	2	0.6968	0.4046	1	1	0.474	88
2	1	29	0	1	3	0.6968	0.4046	1	1	0.576	8
2	1	30	1	2	3	0.6968	0.4046	0	1	0.622	73
2	1	31	0	2	1	0.6968	0.4046	0	1	0.479	9
2	1	32	1	2	2	0.6968	0.4046	1	1	0.625	73
2	1	33	1	1	3	0.6968	0.4046	1	1	0.495	86
2	1	34	1	2	2	0.6968	0.4046	1	1	0.617	73
2	1	35	0	1	3	0.6968	0.4046	0	1	0.630	7
2	1	36	1	1	2	0.6968	0.4046	0	1	0.732	62
2	1	37	0	1	3	0.6968	0.4046	0	1	0.485	9
2	1	38	1	1	1	0.6968	0.4046	0	1	0.542	81
2	1	39	1	1	3	0.6968	0.4046	0	1	0.489	86
2	1	40	1	2	1	0.6968	0.4046	1	1	0.609	74
2	1	41	0	1	2	0.6968	0.4046	1	1	0.514	8
2	1	42	1	1	3	0.6968	0.4046	0	1	0.497	85
2	1	43	0	1	1	0.6968	0.4046	0	1	0.490	9
2	1	44	0	2	1	0.6968	0.4046	1	1	0.542	8
2	1	45	0	2	2	0.6968	0.4046	0	1	0.586	8
2	1	46	1	2	2	0.6968	0.4046	0	1	0.383	97
2	1	47	0	1	1	0.6968	0.4046	0	1	0.505	8
2	1	48	0	2	3	0.6968	0.4046	0	1	0.472	9
2	1	49	0	2	2	0.6968	0.4046	1	0	0.502	0
2	1	50	1	2	2	0.6968	0.4046	1	1	0.509	84
2	1	51	0	2	2	0.6968	0.4046	1	1	0.421	9
2	1	52	0	1	3	0.6968	0.4046	1	0	0.638	0
2	1	53	1	2	2	0.6968	0.4046	1	0	0.523	0
2	1	54	0	1	3	0.6968	0.4046	1	1	0.377	10
2	1	55	1	1	3	0.6968	0.4046	1	1	0.634	72
2	1	56	0	1	2	0.6968	0.4046	1	1	0.714	6
2	1	57	1	2	2	0.6968	0.4046	1	1	0.502	85
2	1	58	1	2	2	0.6968	0.4046	1	0	0.628	0
2	1	59	1	2	2	0.6968	0.4046	0	1	0.457	89
2	1	60	0	2	1	0.6968	0.4046	0	1	0.520	8
2	1	61	0	1	2	0.6968	0.4046	0	1	0.610	7
2	1	62	1	1	3	0.6968	0.4046	0	1	0.570	78
2	1	63	1	1	3	0.6968	0.4046	0	1	0.543	81
2	1	64	0	2	2	0.6968	0.4046	0	1	0.514	8
2	1	65	0	2	2	0.6968	0.4046	1	1	0.525	8
2	1	66	0	1	1	0.6968	0.4046	1	1	0.689	7
2	1	67	0	2	2	0.6968	0.4046	1	0	0.667	0
2	1	68	1	2	1	0.6968	0.4046	0	1	0.446	90
2	1	69	0	2	3	0.6968	0.4046	1	0	0.761	0
2	1	70	0	1	2	0.6968	0.4046	0	0	0.601	0
2	1	71	0	1	3	0.6968	0.4046	0	1	0.510	8
2	1	72	0	1	3	0.6968	0.4046	1	0	0.486	0
2	1	73	1	1	1	0.6968	0.4046	0	0	0.696	0
2	1	74	1	1	2	0.6968	0.4046	1	1	0.622	73
2	1	75	1	1	3	0.6968	0.4046	0	1	0.502	85
2	1	76	1	1	3	0.6968	0.4046	1	1	0.461	89
2	1	77	1	1	1	0.6968	0.4046	0	1	0.476	87
2	1	78	0	1	1	0.6968	0.4046	1	1	0.475	9
2	1	79	1	1	3	0.6968	0.4046	1	1	0.551	80
2	1	80	0	2	2	0.6968	0.4046	1	1	0.564	8
2	1	81	0	1	1	0.6968	0.4046	1	0	0.536	0
2	1	82	0	2	3	0.6968	0.4046	1	1	0.722	6
2	1	83	1	1	1	0.6968	0.4046	1	0	0.558	0
2	1	84	0	2	1	0.6968	0.4046	0	1	0.567	8
2	1	85	0	2	3	0.6968	0.4046	0	1	0.528	8
2	1	86	0	2	2	0.6968	0.4046	0	1	0.458	9
2	1	87	1	2	3	0.6968	0.4046	0	1	0.473	88
2	1	88	1	1	1	0.6968	0.4046	1	1	0.653	70
2	1	89	0	2	1	0.6968	0.4046	1	0	0.551	0
2	1	90	0	2	2	0.6968	0.4046	0	1	0.393	10
2	1	91	0	2	2	0.6968	0.4046	1	1	0.563	8
2	1	92	0	1	1	0.6968	0.4046	1	1	0.566	8
2	1	93	0	1	3	0.6968	0.4046	1	0	0.926	0
2	1	94	0	2	1	0.6968	0.4046	0	1	0.492	9
2	1	95	1	2	2	0.6968	0.4046	0	1	0.428	92
2	1	96	1	2	3	0.6968	0.4046	1	0	0.589	0
2	1	97	1	2	2	0.6968	0.4046	0	1	0.485	87
2	1	98	0	2	1	0.6968	0.4046	0	1	0.705	6
2	1	99	1	2	2	0.6968	0.4046	0	1	0.515	83
2	1	100	0	1	1	0.6968	0.4046	0	1	0.739	6
2	1	101	1	2	3	0.6968	0.4046	1	1	0.687	66
2	1	102	0	1	1	0.6968	0.4046	0	1	0.669	7
2	1	103	1	1	1	0.6968	0.4046	1	1	1.001	50
2	1	104	0	1	3	0.6968	0.4046	0	0	0.467	0
2	1	105	0	2	2	0.6968	0.4046	0	1	0.516	8
2	1	106	1	1	2	0.6968	0.4046	0	1	1.054	50
2	1	107	1	2	2	0.6968	0.4046	0	1	0.594	76
2	1	108	1	2	2	0.6968	0.4046	0	1	0.490	86
2	1	109	1	1	3	0.6968	0.4046	0	1	0.691	66
2	1	110	1	1	3	0.6968	0.4046	0	1	0.579	77
2	1	111	1	2	1	0.6968	0.4046	0	1	0.570	78
2	1	112	1	1	3	0.6968	0.4046	1	1	0.635	71
2	1	113	0	1	3	0.6968	0.4046	1	1	0.498	9
2	1	114	0	1	3	0.6968	0.4046	0	1	0.647	7
2	1	115	0	1	3	0.6968	0.4046	0	1	0.460	9
2	1	116	1	1	3	0.6968	0.4046	0	1	0.526	82
2	1	117	0	1	1	0.6968	0.4046	1	1	0.589	8
2	1	118	0	2	2	0.6968	0.4046	1	0	0.613	0
2	1	119	0	1	3	0.6968	0.4046	1	1	0.456	9
2	1	120	0	2	2	0.6968	0.4046	0	1	0.461	9
2	1	121	0	1	2	0.6968	0.4046	1	1	0.529	8
2	1	122	0	2	3	0.6968	0.4046	0	1	0.498	9
2	1	123	0	2	1	0.6968	0.4046	0	1	0.461	9
2	1	124	0	1	3	0.6968	0.4046	1	1	0.475	9
2	1	125	1	2	1	0.6968	0.4046	0	1	0.519	83
2	1	126	0	1	1	0.6968	0.4046	0	1	0.682	7
2	1	127	0	1	1	0.6968	0.4046	0	1	0.519	8
2	1	128	1	2	3	0.6968	0.4046	1	0	0.555	0
2	1	129	0	2	2	0.6968	0.4046	1	0	0.560	0
2	1	130	0	1	1	0.6968	0.4046	1	1	0.659	7
2	1	131	0	2	1	0.6968	0.4046	1	1	0.641	7
2	1	132	0	1	3	0.6968	0.4046	1	1	0.436	9
2	1	133	0	2	1	0.6968	0.4046	0	1	0.620	7
2	1	134	1	2	3	0.6968	0.4046	0	1	0.494	86
2	1	135	0	1	3	0.6968	0.4046	0	1	0.574	8
2	1	136	0	1	3	0.6968	0.4046	1	1	0.528	8
2	1	137	0	1	3	0.6968	0.4046	0	0	0.559	0
2	1	138	0	2	3	0.6968	0.4046	0	1	0.732	6
2	1	139	1	2	1	0.6968	0.4046	1	1	0.481	87
2	1	140	1	2	3	0.6968	0.4046	1	1	0.608	74
2	1	141	0	1	3	0.6968	0.4046	1	1	0.559	8
2	1	142	1	1	3	0.6968	0.4046	1	1	0.500	85
2	1	143	1	2	2	0.6968	0.4046	0	1	0.515	83
2	1	144	0	2	2	0.6968	0.4046	0	1	0.605	7
2	1	145	1	2	3	0.6968	0.4046	0	1	0.510	84
2	1	146	0	2	1	0.6968	0.4046	1	1	0.755	6
2	1	147	0	2	2	0.6968	0.4046	1	1	0.493	9
2	1	148	0	1	3	0.6968	0.4046	0	1	0.853	5
2	1	149	0	2	2	0.6968	0.4046	0	1	0.481	9
2	1	150	0	1	1	0.6968	0.4046	1	1	0.897	5
2	1	151	1	1	3	0.6968	0.4046	1	1	0.544	81
2	1	152	1	2	1	0.6968	0.4046	1	1	0.699	65
2	1	153	1	2	2	0.6968	0.4046	0	1	0.476	87
2	1	154	1	1	2	0.6968	0.4046	1	1	0.765	58
2	1	155	0	2	2	0.6968	0.4046	0	1	0.495	9
2	1	156	1	2	1	0.6968	0.4046	0	1	0.488	86
2	1	157	1	1	3	0.6968	0.4046	1	1	0.510	84
2	1	158	0	1	3	0.6968	0.4046	1	1	0.615	7
2	1	159	1	2	2	0.6968	0.4046	1	1	0.653	70
2	1	160	0	2	2	0.6968	0.4046	0	1	0.498	9
2	1	161	0	1	3	0.6968	0.4046	0	1	0.742	6
2	1	162	1	1	1	0.6968	0.4046	1	1	0.611	74
2	1	163	0	1	3	0.6968	0.4046	1	1	0.474	9
2	1	164	1	2	1	0.6968	0.4046	1	0	0.527	0
2	1	165	0	2	1	0.6968	0.4046	0	1	0.444	9
2	1	166	1	2	2	0.6968	0.4046	1	1	0.560	79
2	1	167	0	2	2	0.6968	0.4046	1	1	0.590	8
2	1	168	1	1	1	0.6968	0.4046	0	1	0.722	63
2	1	169	0	1	3	0.6968	0.4046	0	0	0.528	0
2	1	170	0	1	3	0.6968	0.4046	0	0	0.582	0
2	1	171	0	1	2	0.6968	0.4046	0	1	0.502	8
2	1	172	1	1	3	0.6968	0.4046	0	1	0.395	96
2	1	173	0	2	2	0.6968	0.4046	1	1	0.620	7
2	1	174	1	2	1	0.6968	0.4046	0	1	0.535	82
2	1	175	1	1	3	0.6968	0.4046	0	1	0.659	69
2	1	176	0	2	1	0.6968	0.4046	0	1	0.492	9
2	1	177	0	2	3	0.6968	0.4046	1	0	0.494	0
2	1	178	1	1	3	0.6968	0.4046	0	1	0.617	73
2	1	179	1	2	2	0.6968	0.4046	0	1	0.434	92
2	1	180	1	2	1	0.6968	0.4046	1	1	0.714	64
2	1	181	1	1	2	0.6968	0.4046	0	1	0.601	75
2	1	182	0	1	3	0.6968	0.4046	0	1	0.432	9
2	1	183	1	2	1	0.6968	0.4046	0	1	0.376	97
2	1	184	1	1	3	0.6968	0.4046	0	1	0.466	88
2	1	185	0	1	1	0.6968	0.4046	1	1	0.749	6
2	1	186	1	1	2	0.6968	0.4046	1	0	0.523	0
2	1	187	1	2	2	0.6968	0.4046	0	1	0.518	83
2	1	188	1	1	3	0.6968	0.4046	0	1	0.432	92
2	1	189	0	1	3	0.6968	0.4046	1	0	0.492	0
2	1	190	1	1	3	0.6968	0.4046	1	1	0.491	86
2	1	191	1	1	2	0.6968	0.4046	0	1	0.464	89
2	1	192	1	2	1	0.6968	0.4046	0	1	0.500	85
2	1	193	1	1	1	0.6968	0.4046	1	1	0.818	53
2	1	194	0	2	2	0.6968	0.4046	0	1	0.803	5
2	1	195	1	1	3	0.6968	0.4046	1	1	0.466	88
2	1	196	0	2	2	0.6968	0.4046	1	1	0.551	8
2	1	197	1	2	2	0.6968	0.4046	1	1	0.630	72
2	1	198	1	2	2	0.6968	0.4046	0	1	0.462	89
2	1	199	1	2	2	0.6968	0.4046	1	0	0.779	0
2	1	200	1	2	2	0.6968	0.4046	0	1	0.465	89
2	1	201	0	1	3	0.6968	0.4046	0	1	0.574	8
2	1	202	0	1	1	0.6968	0.4046	0	1	0.558	8
2	1	203	0	2	2	0.6968	0.4046	1	1	0.501	8
2	1	204	1	1	3	0.6968	0.4046	0	1	0.602	75
2	1	205	0	2	1	0.6968	0.4046	1	1	0.630	7
2	1	206	0	1	2	0.6968	0.4046	1	1	0.604	7
2	1	207	1	1	1	0.6968	0.4046	0	1	0.555	80
2	1	208	1	2	2	0.6968	0.4046	1	0	0.548	0
2	1	209	1	1	3	0.6968	0.4046	0	1	0.672	68
2	1	210	0	1	1	0.6968	0.4046	1	1	0.545	8
2	1	211	1	1	3	0.6968	0.4046	1	1	0.483	87
2	1	212	1	2	2	0.6968	0.4046	0	1	0.447	90
2	1	213	1	2	2	0.6968	0.4046	1	0	0.522	0
2	1	214	1	2	2	0.6968	0.4046	1	1	0.585	76
2	1	215	0	2	2	0.6968	0.4046	0	1	0.519	8
2	1	216	0	2	1	0.6968	0.4046	1	1	0.546	8
2	1	217	1	1	3	0.6968	0.4046	1	1	0.484	87
2	1	218	0	1	1	0.6968	0.4046	0	1	0.475	9
2	1	219	0	2	2	0.6968	0.4046	0	1	0.411	9
2	1	220	0	2	3	0.6968	0.4046	1	0	0.559	0
2	1	221	0	1	2	0.6968	0.4046	0	1	0.527	8
2	1	222	1	1	1	0.6968	0.4046	0	1	0.507	84
2	1	223	1	1	1	0.6968	0.4046	1	1	0.722	63
2	1	224	0	2	1	0.6968	0.4046	0	1	0.489	9
2	1	225	1	1	1	0.6968	0.4046	1	1	0.590	76
2	1	226	0	2	2	0.6968	0.4046	0	1	0.485	9
2	1	227	0	2	1	0.6968	0.4046	1	1	0.539	8
2	1	228	1	1	1	0.6968	0.4046	1	1	0.556	79
2	1	229	1	2	2	0.6968	0.4046	0	1	0.440	91
2	1	230	0	1	3	0.6968	0.4046	1	1	0.409	9
2	1	231	0	2	2	0.6968	0.4046	1	1	0.551	8
2	1	232	1	2	2	0.6968	0.4046	1	1	0.497	85
2	1	233	1	2	1	0.6968	0.4046	1	0	0.662	0
2	1	234	0	2	2	0.6968	0.4046	1	1	0.489	9
2	1	235	0	1	1	0.6968	0.4046	1	1	0.542	8
2	1	236	1	1	3	0.6968	0.4046	1	1	0.522	83
2	1	237	1	1	1	0.6968	0.4046	0	1	0.600	75
2	1	238	0	1	1	0.6968	0.4046	0	1	0.704	6
2	1	239	1	1	1	0.6968	0.4046	0	1	0.433	92
2	1	240	1	1	3	0.6968	0.4046	0	1	0.617	73
2	1	241	1	1	3	0.6968	0.4046	1	0	0.570	0
2	1	242	0	2	2	0.6968	0.4046	0	1	0.492	9
2	1	243	1	1	1	0.6968	0.4046	1	1	0.682	67
2	1	244	0	1	2	0.6968	0.4046	0	1	0.455	9
2	1	245	1	1	1	0.6968	0.4046	0	1	0.477	87
2	1	246	1	2	1	0.6968	0.4046	0	1	0.631	72
2	1	247	0	2	1	0.6968	0.4046	0	1	0.541	8
2	1	248	0	1	1	0.6968	0.4046	0	1	0.706	6
2	1	249	1	2	3	0.6968	0.4046	1	0	0.583	0
2	1	250	1	1	3	0.6968	0.4046	0	1	0.631	72
2	1	251	1	2	1	0.6968	0.4046	1	1	0.631	72
2	1	252	0	2	2	0.6968	0.4046	0	1	0.477	9
2	1	253	1	2	2	0.6968	0.4046	0	1	0.445	91
2	1	254	0	1	2	0.6968	0.4046	0	1	0.651	7
2	1	255	0	2	2	0.6968	0.4046	0	1	0.826	5
2	1	256	1	2	2	0.6968	0.4046	1	1	0.555	80
2	1	257	0	1	3	0.6968	0.4046	1	1	0.596	8
2	1	258	0	2	1	0.6968	0.4046	1	1	0.524	8
2	1	259	1	1	2	0.6968	0.4046	0	1	0.572	78
2	1	260	0	1	1	0.6968	0.4046	0	1	0.528	8
2	1	261	1	1	1	0.6968	0.4046	0	1	0.480	87
2	1	262	1	1	2	0.6968	0.4046	0	1	0.630	72
2	1	263	1	1	3	0.6968	0.4046	0	1	0.416	93
2	1	264	0	2	3	0.6968	0.4046	1	1	0.683	7
2	1	265	0	2	2	0.6968	0.4046	0	1	0.441	9
2	1	266	1	1	1	0.6968	0.4046	0	1	0.496	85
2	1	267	1	1	3	0.6968	0.4046	0	1	0.444	91
2	1	268	0	1	3	0.6968	0.4046	1	1	0.418	9
2	1	269	1	2	3	0.6968	0.4046	0	1	0.479	87
2	1	270	1	1	1	0.6968	0.4046	1	1	0.637	71
2	1	271	0	1	3	0.6968	0.4046	0	1	0.470	9
2	1	272	0	2	2	0.6968	0.4046	1	1	0.510	8
2	1	273	0	1	3	0.6968	0.4046	0	1	0.656	7
2	1	274	1	1	3	0.6968	0.4046	1	1	0.375	97
2	1	275	0	2	1	0.6968	0.4046	0	1	0.443	9
2	1	276	1	1	3	0.6968	0.4046	1	1	0.413	94
2	1	277	0	1	3	0.6968	0.4046	1	1	0.405	9
2	1	278	0	2	3	0.6968	0.4046	0	1	0.438	9
2	1	279	0	1	1	0.6968	0.4046	0	1	0.526	8
2	1	280	0	1	1	0.6968	0.4046	1	1	0.461	9
2	1	281	0	2	2	0.6968	0.4046	0	1	0.549	8
2	1	282	0	1	1	0.6968	0.4046	1	1	0.565	8
2	1	283	0	2	2	0.6968	0.4046	1	1	0.592	8
2	1	284	1	2	1	0.6968	0.4046	1	1	0.456	89
2	1	285	0	1	1	0.6968	0.4046	1	0	0.669	0
2	1	286	0	2	2	0.6968	0.4046	1	1	0.532	8
2	1	287	1	1	3	0.6968	0.4046	0	1	0.441	91
2	1	288	0	1	1	0.6968	0.4046	0	1	0.569	8
2	1	289	0	1	3	0.6968	0.4046	0	1	0.420	9
2	1	290	1	2	2	0.6968	0.4046	1	1	0.513	84
2	1	291	0	2	1	0.6968	0.4046	0	1	0.428	9
2	1	292	0	1	3	0.6968	0.4046	1	1	0.515	8
2	1	293	1	2	2	0.6968	0.4046	0	1	0.461	89
2	1	294	0	1	2	0.6968	0.4046	1	1	0.624	7
2	1	295	0	1	1	0.6968	0.4046	1	1	0.552	8
2	1	296	1	1	1	0.6968	0.4046	0	0	0.604	0
2	1	297	0	2	3	0.6968	0.4046	0	1	0.445	9
2	1	298	1	2	3	0.6968	0.4046	0	1	0.555	80
2	1	299	0	1	3	0.6968	0.4046	0	1	0.524	8
2	1	300	1	2	1	0.6968	0.4046	0	1	0.394	96
2	1	301	1	2	1	0.6968	0.4046	1	0	0.462	0
2	1	302	0	2	2	0.6968	0.4046	1	1	0.454	9
2	1	303	1	1	1	0.6968	0.4046	1	1	0.554	80
2	1	304	0	2	1	0.6968	0.4046	1	1	0.546	8
2	1	305	1	1	1	0.6968	0.4046	1	0	0.588	0
2	1	306	1	2	2	0.6968	0.4046	0	0	0.615	0
2	1	307	0	1	3	0.6968	0.4046	0	1	0.474	9
2	1	308	1	2	1	0.6968	0.4046	0	1	0.516	83
2	1	309	0	2	3	0.6968	0.4046	1	1	0.546	8
2	1	310	0	1	3	0.6968	0.4046	0	1	0.489	9
2	1	311	0	2	1	0.6968	0.4046	0	1	0.460	9
2	1	312	0	1	2	0.6968	0.4046	1	0	0.732	0
2	1	313	1	2	1	0.6968	0.4046	1	1	0.496	85
2	1	314	0	2	1	0.6968	0.4046	0	1	0.501	8
2	1	315	0	2	2	0.6968	0.4046	1	0	0.870	0
2	1	316	1	2	2	0.6968	0.4046	0	1	0.432	92
2	1	317	1	1	3	0.6968	0.4046	1	1	0.544	81
2	1	318	1	1	2	0.6968	0.4046	1	1	0.699	65
2	1	319	1	2	2	0.6968	0.4046	0	1	0.392	96
2	1	320	0	2	1	0.6968	0.4046	1	0	0.806	0
2	1	321	0	2	1	0.6968	0.4046	1	1	0.673	7
2	1	322	0	2	2	0.6968	0.4046	0	1	0.437	9
2	1	323	1	2	2	0.6968	0.4046	1	1	0.476	87
2	1	324	1	2	2	0.6968	0.4046	0	1	0.421	93
2	1	325	0	2	2	0.6968	0.4046	1	1	0.575	8
2	1	326	0	2	2	0.6968	0.4046	0	1	0.406	9
2	1	327	0	2	2	0.6968	0.4046	0	1	0.397	10
2	1	328	1	1	3	0.6968	0.4046	1	1	0.460	89
2	1	329	0	1	3	0.6968	0.4046	1	0	0.522	0
2	1	330	0	2	2	0.6968	0.4046	1	0	0.474	0
2	1	331	1	1	3	0.6968	0.4046	0	1	0.517	83
2	1	332	1	1	3	0.6968	0.4046	1	1	0.481	87
2	1	333	1	1	1	0.6968	0.4046	1	1	0.524	83
2	1	334	1	2	2	0.6968	0.4046	0	1	0.403	95
2	1	335	1	2	2	0.6968	0.4046	1	1	0.554	80
2	1	336	1	1	3	0.6968	0.4046	0	1	0.392	96
2	1	337	0	2	1	0.6968	0.4046	1	1	0.518	8
2	1	338	0	1	3	0.6968	0.4046	1	1	0.593	8
2	1	339	0	2	2	0.6968	0.4046	1	0	0.448	0
2	1	340	1	1	1	0.6968	0.4046	0	1	0.639	71
2	1	341	1	1	2	0.6968	0.4046	1	1	0.598	75
2	1	342	1	2	2	0.6968	0.4046	1	0	0.606	0
2	1	343	1	1	3	0.6968	0.4046	1	1	0.379	97
2	1	344	0	1	3	0.6968	0.4046	1	1	0.505	8
2	1	345	1	2	2	0.6968	0.4046	1	1	0.655	70
2	1	346	1	1	3	0.6968	0.4046	0	1	0.368	98
2	1	347	0	1	3	0.6968	0.4046	0	1	0.447	9
2	1	348	1	2	1	0.6968	0.4046	1	1	0.475	87
2	1	349	0	1	1	0.6968	0.4046	1	1	0.536	8
2	1	350	0	1	3	0.6968	0.4046	1	1	0.482	9
2	1	351	0	1	3	0.6968	0.4046	0	1	0.445	9
2	1	352	1	1	3	0.6968	0.4046	1	1	0.629	72
2	1	353	1	2	1	0.6968	0.4046	0	1	0.471	88
2	1	354	1	2	2	0.6968	0.4046	1	1	0.661	69
2	1	355	1	2	2	0.6968	0.4046	1	0	0.471	0
2	1	356	1	2	1	0.6968	0.4046	0	1	0.401	95
2	1	357	1	2	3	0.6968	0.4046	1	1	0.938	50
2	1	358	1	1	3	0.6968	0.4046	0	1	0.451	90
2	1	359	0	1	1	0.6968	0.4046	0	1	0.541	8
2	1	360	1	2	2	0.6968	0.4046	0	1	0.536	81
2	1	361	1	2	1	0.6968	0.4046	1	0	0.593	0
2	1	362	0	2	1	0.6968	0.4046	1	1	0.863	5
2	1	363	1	1	3	0.6968	0.4046	0	1	0.478	87
2	1	364	0	2	2	0.6968	0.4046	1	0	0.504	0
2	1	365	1	1	1	0.6968	0.4046	1	0	0.573	0
2	1	366	1	1	1	0.6968	0.4046	0	1	0.847	50
2	1	367	0	1	1	0.6968	0.4046	0	1	0.498	9
2	1	368	0	1	1	0.6968	0.4046	0	1	0.585	8
2	1	369	1	2	1	0.6968	0.4046	0	1	0.523	83
2	1	370	0	1	3	0.6968	0.4046	0	1	0.417	9
2	1	371	1	2	3	0.6968	0.4046	1	1	0.525	82
2	1	372	0	1	3	0.6968	0.4046	0	1	0.470	9
2	1	373	0	1	1	0.6968	0.4046	0	1	0.533	8
2	1	374	0	2	1	0.6968	0.4046	0	1	0.474	9
2	1	375	1	1	2	0.6968	0.4046	0	1	0.472	88
2	1	376	0	2	2	0.6968	0.4046	0	1	0.452	9
2	1	377	0	1	3	0.6968	0.4046	0	1	0.654	7
2	1	378	0	2	2	0.6968	0.4046	1	1	0.479	9
2	1	379	0	2	2	0.6968	0.4046	0	1	0.386	10
2	1	380	0	1	3	0.6968	0.4046	1	1	0.407	9
2	1	381	1	1	1	0.6968	0.4046	1	1	0.485	86
2	1	382	1	2	1	0.6968	0.4046	0	1	0.436	91
2	1	383	0	2	2	0.6968	0.4046	0	1	0.505	8
2	1	384	0	2	2	0.6968	0.4046	1	1	0.536	8
2	1	385	0	1	3	0.6968	0.4046	1	1	0.489	9
2	1	386	0	2	3	0.6968	0.4046	1	1	0.887	5
2	1	387	0	1	3	0.6968	0.4046	1	1	0.734	6
2	1	388	1	2	2	0.6968	0.4046	1	1	0.564	79
2	1	389	0	1	1	0.6968	0.4046	1	1	0.826	5
2	1	390	1	1	1	0.6968	0.4046	1	1	0.613	74
2	1	391	0	2	1	0.6968	0.4046	0	1	0.428	9
2	1	392	0	1	3	0.6968	0.4046	1	1	0.440	9
2	1	393	0	2	2	0.6968	0.4046	0	1	0.382	10
2	1	394	0	2	3	0.6968	0.4046	0	1	0.466	9
2	1	395	0	1	3	0.6968	0.4046	0	0	0.485	0
2	1	396	0	1	1	0.6968	0.4046	1	1	0.627	7
2	1	397	1	1	3	0.6968	0.4046	0	1	0.608	74
2	1	398	0	2	2	0.6968	0.4046	0	1	0.644	7
2	1	399	0	1	2	0.6968	0.4046	1	1	0.570	8
2	1	400	1	2	2	0.6968	0.4046	0	1	0.445	91
2	1	401	1	2	2	0.6968	0.4046	0	1	0.472	88
2	1	402	0	2	3	0.6968	0.4046	0	1	0.425	9
2	1	403	0	1	1	0.6968	0.4046	1	1	0.545	8
2	1	404	1	2	2	0.6968	0.4046	1	1	0.589	76
2	1	405	1	2	3	0.6968	0.4046	1	0	0.452	0
2	1	406	0	2	1	0.6968	0.4046	1	1	0.582	8
2	1	407	0	2	2	0.6968	0.4046	1	1	0.585	8
2	1	408	1	2	1	0.6968	0.4046	1	1	0.524	83
2	1	409	0	2	2	0.6968	0.4046	1	1	0.543	8
2	1	410	1	2	2	0.6968	0.4046	0	1	0.407	94
2	1	411	0	1	1	0.6968	0.4046	0	1	0.640	7
2	1	412	0	2	3	0.6968	0.4046	1	1	0.567	8
2	1	413	1	2	3	0.6968	0.4046	0	1	0.427	92
2	1	414	1	1	3	0.6968	0.4046	1	1	0.741	61
2	1	415	0	1	2	0.6968	0.4046	1	1	0.615	7
2	1	416	0	2	2	0.6968	0.4046	1	1	0.540	8
2	1	417	1	1	1	0.6968	0.4046	0	1	0.418	93
2	1	418	1	2	2	0.6968	0.4046	0	1	0.424	93
2	1	419	0	1	2	0.6968	0.4046	0	1	0.392	10
2	1	420	1	2	2	0.6968	0.4046	1	1	0.479	87
2	1	421	1	1	1	0.6968	0.4046	0	1	0.510	84
2	1	422	0	2	1	0.6968	0.4046	1	1	0.599	8
2	1	423	1	1	3	0.6968	0.4046	0	1	0.380	97
2	1	424	0	2	1	0.6968	0.4046	0	1	0.429	9
2	1	425	0	2	2	0.6968	0.4046	1	1	0.586	8
2	1	426	1	1	1	0.6968	0.4046	1	0	0.494	0
2	1	427	1	2	2	0.6968	0.4046	0	1	0.481	87
2	1	428	0	1	1	0.6968	0.4046	1	1	0.650	7
2	1	429	1	1	3	0.6968	0.4046	1	0	0.459	0
2	1	430	1	2	2	0.6968	0.4046	1	1	0.561	79
2	1	431	1	1	1	0.6968	0.4046	0	1	0.534	82
2	1	432	0	1	3	0.6968	0.4046	0	1	0.471	9
2	1	433	1	2	1	0.6968	0.4046	1	1	0.615	73
2	1	434	0	2	2	0.6968	0.4046	0	1	0.400	9
2	1	435	1	1	2	0.6968	0.4046	1	1	0.739	61
2	1	436	1	1	3	0.6968	0.4046	0	1	0.518	83
2	1	437	1	1	3	0.6968	0.4046	1	1	0.486	86
2	1	438	0	1	3	0.6968	0.4046	0	1	0.443	9
2	1	439	1	2	1	0.6968	0.4046	1	1	0.572	78
2	1	440	1	1	3	0.6968	0.4046	0	1	0.482	87
2	1	441	1	1	1	0.6968	0.4046	0	1	0.477	87
2	1	442	1	1	3	0.6968	0.4046	0	1	0.463	89
2	1	443	1	2	1	0.6968	0.4046	1	1	0.477	87
2	1	444	1	2	1	0.6968	0.4046	0	1	0.463	89
2	1	445	0	1	2	0.6968	0.4046	0	1	0.525	8
2	1	446	0	2	1	0.6968	0.4046	0	1	0.610	7
2	1	447	0	1	1	0.6968	0.4046	0	1	0.492	9
2	1	448	0	2	1	0.6968	0.4046	1	1	0.439	9
2	1	449	1	1	2	0.6968	0.4046	1	1	0.638	71
2	1	450	0	1	3	0.6968	0.4046	1	1	0.645	7
2	1	451	0	2	1	0.6968	0.4046	0	1	0.441	9
2	1	452	1	2	1	0.6968	0.4046	0	1	0.492	86
2	1	453	0	1	3	0.6968	0.4046	1	1	0.597	8
2	1	454	1	2	2	0.6968	0.4046	1	1	0.639	71
2	1	455	1	1	3	0.6968	0.4046	1	1	0.610	74
2	1	456	0	1	3	0.6968	0.4046	1	1	0.516	8
2	1	457	1	1	3	0.6968	0.4046	1	1	0.490	86
2	1	458	1	1	3	0.6968	0.4046	1	1	0.552	80
2	1	459	1	2	2	0.6968	0.4046	0	1	0.491	86
2	1	460	1	2	2	0.6968	0.4046	1	0	0.695	0
2	1	461	0	1	3	0.6968	0.4046	0	1	0.704	6
2	1	462	1	1	3	0.6968	0.4046	0	0	0.659	0
2	1	463	0	1	3	0.6968	0.4046	1	1	0.562	8
2	1	464	1	2	2	0.6968	0.4046	1	1	0.526	82
2	1	465	0	2	2	0.6968	0.4046	0	1	0.470	9
2	1	466	1	2	2	0.6968	0.4046	1	1	0.618	73
2	1	467	1	2	2	0.6968	0.4046	0	1	0.454	90
2	1	468	1	2	3	0.6968	0.4046	0	1	0.651	70
2	1	469	1	1	3	0.6968	0.4046	1	1	0.468	88
2	1	470	0	2	2	0.6968	0.4046	1	1	0.651	7
2	1	471	0	1	3	0.6968	0.4046	0	1	0.599	8
2	1	472	0	2	1	0.6968	0.4046	1	1	0.523	8
2	1	473	0	2	2	0.6968	0.4046	0	1	0.460	9
2	1	474	1	2	1	0.6968	0.4046	0	1	0.390	96
2	1	475	1	1	2	0.6968	0.4046	0	1	0.450	90
2	1	476	1	2	2	0.6968	0.4046	0	1	0.390	96
2	1	477	0	1	1	0.6968	0.4046	1	1	0.457	9
2	1	478	1	1	3	0.6968	0.4046	1	1	0.401	95
2	1	479	1	1	1	0.6968	0.4046	1	1	0.529	82
2	1	480	1	1	3	0.6968	0.4046	0	1	0.490	86
2	1	481	1	1	3	0.6968	0.4046	0	1	0.604	75
2	1	482	1	2	2	0.6968	0.4046	0	1	0.367	98
2	1	483	0	1	1	0.6968	0.4046	0	1	0.469	9
2	1	484	0	1	1	0.6968	0.4046	0	1	0.387	10
2	1	485	0	2	3	0.6968	0.4046	1	1	0.592	8
2	1	486	1	1	1	0.6968	0.4046	0	1	0.461	89
2	1	487	1	1	3	0.6968	0.4046	1	0	0.438	0
2	1	488	0	1	3	0.6968	0.4046	1	1	0.417	9
2	1	489	0	1	1	0.6968	0.4046	1	1	0.461	9
2	1	490	1	1	3	0.6968	0.4046	1	1	0.461	89
2	1	491	0	1	3	0.6968	0.4046	1	1	0.415	9
2	1	492	1	2	3	0.6968	0.4046	1	1	0.556	79
2	1	493	1	2	1	0.6968	0.4046	1	0	0.467	0
2	1	494	0	2	2	0.6968	0.4046	1	1	0.566	8
2	1	495	0	2	1	0.6968	0.4046	1	1	0.478	9
2	1	496	1	1	1	0.6968	0.4046	1	1	0.743	61
2	1	497	0	2	3	0.6968	0.4046	0	1	0.534	8
2	1	498	0	2	2	0.6968	0.4046	0	1	0.464	9
2	1	499	0	2	1	0.6968	0.4046	1	1	0.576	8
2	1	500	1	1	3	0.6968	0.4046	1	1	0.560	79
2	1	501	1	2	2	0.6968	0.4046	1	1	0.683	67
2	1	502	1	2	1	0.6968	0.4046	0	1	0.483	87
2	1	503	0	1	3	0.6968	0.4046	1	1	0.540	8
2	1	504	0	1	3	0.6968	0.4046	0	1	0.491	9
2	1	505	1	1	1	0.6968	0.4046	1	1	0.494	86
2	1	506	0	1	2	0.6968	0.4046	0	1	0.497	9
2	1	507	1	1	2	0.6968	0.4046	1	1	0.545	80
2	1	508	1	2	2	0.6968	0.4046	1	1	0.655	70
2	1	509	1	2	1	0.6968	0.4046	1	1	0.599	75
2	1	510	0	1	2	0.6968	0.4046	1	1	0.588	8
2	1	511	1	2	2	0.6968	0.4046	0	1	0.421	93
2	1	512	0	2	3	0.6968	0.4046	1	0	0.672	0
2	1	513	0	2	1	0.6968	0.4046	0	1	0.456	9
2	1	514	1	2	2	0.6968	0.4046	1	1	0.642	71
2	1	515	0	2	2	0.6968	0.4046	0	1	0.433	9
2	1	516	1	1	3	0.6968	0.4046	1	1	0.498	85
2	1	517	0	2	2	0.6968	0.4046	0	1	0.376	10
2	1	518	1	1	3	0.6968	0.4046	0	1	0.469	88
2	1	519	0	1	3	0.6968	0.4046	0	0	0.647	0
2	1	520	0	1	3	0.6968	0.4046	1	1	0.614	7
2	1	521	0	1	3	0.6968	0.4046	1	1	0.532	8
2	1	522	1	1	2	0.6968	0.4046	1	1	0.524	83
2	1	523	0	2	2	0.6968	0.4046	1	0	0.641	0
2	1	524	1	2	2	0.6968	0.4046	0	1	0.407	94
2	1	525	0	1	3	0.6968	0.4046	1	1	0.593	8
2	1	526	1	2	1	0.6968	0.4046	1	0	0.775	0
2	1	527	0	2	2	0.6968	0.4046	1	1	0.571	8
2	1	528	0	2	3	0.6968	0.4046	0	1	0.700	7
2	1	529	0	2	1	0.6968	0.4046	1	0	0.553	0
2	1	530	1	1	1	0.6968	0.4046	1	1	0.667	68
2	1	531	0	2	1	0.6968	0.4046	1	1	0.709	6
2	1	532	1	1	1	0.6968	0.4046	1	1	0.622	73
2	1	533	0	1	3	0.6968	0.4046	0	1	0.426	9
2	1	534	1	2	2	0.6968	0.4046	0	1	0.425	92
2	1	535	1	1	3	0.6968	0.4046	1	1	0.517	83
2	1	536	0	1	1	0.6968	0.4046	1	1	0.597	8
2	1	537	1	1	1	0.6968	0.4046	0	1	0.521	83
2	1	538	0	2	2	0.6968	0.4046	0	1	0.448	9
2	1	539	0	1	1	0.6968	0.4046	1	1	0.618	7
2	1	540	1	1	1	0.6968	0.4046	0	1	0.448	90
2	1	541	0	1	1	0.6968	0.4046	0	1	0.446	9
2	1	542	1	1	3	0.6968	0.4046	0	1	0.468	88
2	1	543	1	2	2	0.6968	0.4046	0	1	0.398	95
2	1	544	1	2	1	0.6968	0.4046	0	1	0.406	94
2	1	545	1	2	3	0.6968	0.4046	1	1	0.849	50
2	1	546	0	1	3	0.6968	0.4046	0	1	0.506	8
2	1	547	0	1	2	0.6968	0.4046	1	1	0.506	8
2	1	548	0	2	2	0.6968	0.4046	1	1	0.540	8
2	1	549	1	2	1	0.6968	0.4046	1	1	0.680	67
2	1	550	1	1	1	0.6968	0.4046	0	1	0.527	82
2	1	551	0	1	3	0.6968	0.4046	1	1	0.418	9
2	1	552	0	2	2	0.6968	0.4046	0	1	0.452	9
2	1	553	1	1	3	0.6968	0.4046	1	1	0.424	93
2	1	554	1	1	3	0.6968	0.4046	0	1	0.441	91
2	1	555	1	1	2	0.6968	0.4046	0	1	0.456	89
2	1	556	1	2	2	0.6968	0.4046	0	1	0.415	93
2	1	557	0	2	2	0.6968	0.4046	0	1	0.547	8
2	1	558	0	2	2	0.6968	0.4046	1	1	0.747	6
2	1	559	1	1	2	0.6968	0.4046	0	1	0.618	73
2	1	560	0	1	2	0.6968	0.4046	0	1	0.424	9
2	1	561	0	2	2	0.6968	0.4046	1	1	0.672	7
2	1	562	1	2	3	0.6968	0.4046	0	1	0.552	80
2	1	563	0	2	1	0.6968	0.4046	1	0	0.409	0
2	1	564	0	1	3	0.6968	0.4046	0	1	0.496	9
2	1	565	0	2	1	0.6968	0.4046	0	1	0.486	9
2	1	566	0	2	2	0.6968	0.4046	1	1	0.697	7
2	1	567	1	2	1	0.6968	0.4046	0	1	0.395	96
2	1	568	1	2	2	0.6968	0.4046	0	1	0.361	99
2	1	569	0	1	3	0.6968	0.4046	1	1	0.567	8
2	1	570	1	1	3	0.6968	0.4046	1	1	0.515	84
2	1	571	0	2	2	0.6968	0.4046	0	1	0.422	9
2	1	572	1	2	1	0.6968	0.4046	0	1	0.372	98
2	1	573	0	2	1	0.6968	0.4046	0	1	0.386	10
2	1	574	0	2	2	0.6968	0.4046	0	1	0.395	10
2	1	575	1	2	2	0.6968	0.4046	1	1	0.524	83
2	1	576	0	1	1	0.6968	0.4046	1	1	0.527	8
2	1	577	1	2	2	0.6968	0.4046	1	0	0.491	0
2	1	578	0	1	3	0.6968	0.4046	0	1	0.489	9
2	1	579	0	1	3	0.6968	0.4046	0	1	0.469	9
2	1	580	1	2	1	0.6968	0.4046	1	1	0.502	85
2	1	581	1	1	3	0.6968	0.4046	0	1	0.487	86
2	1	582	1	2	2	0.6968	0.4046	0	1	0.480	87
2	1	583	0	1	1	0.6968	0.4046	0	1	0.462	9
2	1	584	1	2	1	0.6968	0.4046	0	1	0.720	63
2	1	585	1	2	3	0.6968	0.4046	0	0	0.542	0
2	1	586	0	2	2	0.6968	0.4046	1	0	0.599	0
2	1	587	1	2	2	0.6968	0.4046	1	1	0.589	76
2	1	588	1	2	2	0.6968	0.4046	1	1	0.523	83
2	1	589	1	1	3	0.6968	0.4046	0	1	0.515	83
2	1	590	0	1	1	0.6968	0.4046	0	1	0.543	8
2	1	591	0	1	1	0.6968	0.4046	1	1	0.659	7
2	1	592	1	1	3	0.6968	0.4046	1	1	0.523	83
2	1	593	0	1	3	0.6968	0.4046	0	1	0.516	8
2	1	594	1	1	3	0.6968	0.4046	0	1	0.359	99
2	1	595	0	2	1	0.6968	0.4046	0	1	0.515	8
2	1	596	1	2	2	0.6968	0.4046	1	0	0.673	0
2	1	597	1	1	1	0.6968	0.4046	1	1	0.710	64
2	1	598	1	1	3	0.6968	0.4046	0	1	0.468	88
2	1	599	1	1	1	0.6968	0.4046	0	1	0.472	88
2	1	600	0	2	1	0.6968	0.4046	0	1	0.562	8
2	1	601	0	2	1	0.6968	0.4046	1	0	0.699	0
2	1	602	0	2	2	0.6968	0.4046	1	1	0.626	7
2	1	603	1	1	1	0.6968	0.4046	1	1	0.565	79
2	1	604	1	1	3	0.6968	0.4046	1	1	0.706	64
2	1	605	0	2	3	0.6968	0.4046	1	0	0.760	0
2	1	606	0	1	3	0.6968	0.4046	1	1	0.515	8
2	1	607	1	2	2	0.6968	0.4046	1	1	0.559	79
2	1	608	0	1	3	0.6968	0.4046	0	1	0.537	8
2	1	609	1	2	3	0.6968	0.4046	1	0	0.626	0
2	1	610	0	1	3	0.6968	0.4046	1	1	0.581	8
2	1	611	0	2	2	0.6968	0.4046	0	1	0.521	8
2	1	612	0	2	1	0.6968	0.4046	0	1	0.419	9
2	1	613	1	1	3	0.6968	0.4046	1	1	0.488	86
2	1	614	0	1	2	0.6968	0.4046	1	1	0.763	6
2	1	615	1	2	3	0.6968	0.4046	0	1	0.445	91
2	1	616	0	2	1	0.6968	0.4046	0	1	0.442	9
2	1	617	0	1	1	0.6968	0.4046	1	1	0.557	8
2	1	618	1	1	3	0.6968	0.4046	1	1	0.511	84
2	1	619	0	1	3	0.6968	0.4046	0	1	0.546	8
2	1	620	1	1	3	0.6968	0.4046	1	1	0.756	59
2	1	621	0	2	2	0.6968	0.4046	1	0	0.761	0
2	1	622	0	2	2	0.6968	0.4046	1	1	0.684	7
2	1	623	1	2	2	0.6968	0.4046	1	1	0.753	60
2	1	624	1	1	3	0.6968	0.4046	0	1	0.746	60
2	1	625	0	2	3	0.6968	0.4046	0	1	0.545	8
2	1	626	1	1	1	0.6968	0.4046	0	1	0.527	82
2	1	627	0	1	3	0.6968	0.4046	1	1	0.523	8
2	1	628	0	2	2	0.6968	0.4046	1	1	0.763	6
2	1	629	1	1	2	0.6968	0.4046	1	0	0.575	0
2	1	630	0	2	1	0.6968	0.4046	1	1	0.556	8
2	1	631	1	2	2	0.6968	0.4046	1	1	0.511	84
2	1	632	0	2	1	0.6968	0.4046	1	1	0.489	9
2	1	633	0	1	2	0.6968	0.4046	1	1	0.705	6
2	1	634	0	1	1	0.6968	0.4046	1	1	0.470	9
2	1	635	1	2	2	0.6968	0.4046	0	1	0.440	91
2	1	636	0	2	2	0.6968	0.4046	0	1	0.437	9
2	1	637	1	2	3	0.6968	0.4046	0	1	0.558	79
2	1	638	0	2	2	0.6968	0.4046	1	1	0.527	8
2	1	639	1	1	2	0.6968	0.4046	1	1	0.544	81
2	1	640	1	1	1	0.6968	0.4046	1	1	0.468	88
2	1	641	1	2	2	0.6968	0.4046	0	1	0.457	89
2	1	642	0	1	1	0.6968	0.4046	0	1	0.668	7
2	1	643	0	1	3	0.6968	0.4046	0	1	0.521	8
2	1	644	0	2	3	0.6968	0.4046	0	1	0.489	9
2	1	645	0	2	2	0.6968	0.4046	0	1	0.445	9
2	1	646	1	1	1	0.6968	0.4046	1	1	0.598	75
2	1	647	0	1	1	0.6968	0.4046	1	1	0.427	9
2	1	648	0	1	1	0.6968	0.4046	1	1	0.523	8
2	1	649	0	1	2	0.6968	0.4046	0	0	0.538	0
2	1	650	0	2	1	0.6968	0.4046	0	1	0.466	9
2	1	651	1	2	2	0.6968	0.4046	0	1	0.371	98
2	1	652	0	2	2	0.6968	0.4046	1	0	0.690	0
2	1	653	0	2	2	0.6968	0.4046	0	1	0.419	9
2	1	654	1	1	2	0.6968	0.4046	0	1	0.577	77
2	1	655	0	1	3	0.6968	0.4046	0	1	0.521	8
2	1	656	0	1	2	0.6968	0.4046	0	1	0.463	9
2	1	657	1	2	2	0.6968	0.4046	1	1	0.608	74
2	1	658	1	2	1	0.6968	0.4046	1	0	0.527	0
2	1	659	0	2	3	0.6968	0.4046	1	1	0.523	8
2	1	660	1	2	1	0.6968	0.4046	1	1	0.535	82
2	1	661	1	1	3	0.6968	0.4046	1	1	0.518	83
2	1	662	1	2	1	0.6968	0.4046	0	1	0.462	89
2	1	663	0	2	2	0.6968	0.4046	0	1	0.398	10
2	1	664	0	1	1	0.6968	0.4046	1	1	0.517	8
2	1	665	0	2	2	0.6968	0.4046	0	1	0.433	9
2	1	666	0	1	1	0.6968	0.4046	0	1	0.490	9
2	1	667	1	2	3	0.6968	0.4046	1	1	0.523	83
2	1	668	0	2	2	0.6968	0.4046	0	1	0.393	10
2	1	669	1	1	3	0.6968	0.4046	1	1	0.499	85
2	1	670	0	1	3	0.6968	0.4046	1	1	0.512	8
2	1	671	1	1	3	0.6968	0.4046	0	1	0.396	95
2	1	672	1	2	2	0.6968	0.4046	0	1	0.480	87
2	1	673	1	2	2	0.6968	0.4046	1	1	0.588	76
2	1	674	1	1	3	0.6968	0.4046	0	1	0.593	76
2	1	675	1	1	3	0.6968	0.4046	0	1	0.490	86
2	1	676	1	1	3	0.6968	0.4046	0	1	0.413	94
2	1	677	1	2	2	0.6968	0.4046	0	1	0.360	99
2	1	678	1	1	1	0.6968	0.4046	0	1	0.413	94
2	1	679	0	1	3	0.6968	0.4046	1	1	0.491	9
2	1	680	1	1	2	0.6968	0.4046	0	1	0.492	86
2	1	681	1	2	2	0.6968	0.4046	0	1	0.452	90
2	1	682	1	2	2	0.6968	0.4046	1	1	0.526	82
2	1	683	1	2	1	0.6968	0.4046	0	1	0.791	56
2	1	684	1	1	3	0.6968	0.4046	0	1	0.411	94
2	1	685	0	1	1	0.6968	0.4046	0	1	0.484	9
2	1	686	1	1	1	0.6968	0.4046	0	1	0.404	95
2	1	687	1	1	1	0.6968	0.4046	0	1	0.406	94
2	1	688	0	2	1	0.6968	0.4046	1	1	0.539	8
2	1	689	1	2	1	0.6968	0.4046	0	1	0.478	87
2	1	690	0	1	1	0.6968	0.4046	0	1	0.484	9
2	1	691	0	1	3	0.6968	0.4046	1	1	0.618	7
2	1	692	1	1	3	0.6968	0.4046	1	1	0.508	84
2	1	693	1	1	3	0.6968	0.4046	1	1	0.473	88
2	1	694	1	1	1	0.6968	0.4046	1	1	0.464	89
2	1	695	1	2	2	0.6968	0.4046	0	1	0.493	86
2	1	696	0	2	1	0.6968	0.4046	0	1	0.446	9
2	1	697	1	1	1	0.6968	0.4046	0	1	0.644	71
2	1	698	0	2	1	0.6968	0.4046	0	1	0.463	9
2	1	699	1	1	3	0.6968	0.4046	0	1	0.596	75
2	1	700	1	2	1	0.6968	0.4046	0	1	0.480	87
2	1	701	1	2	2	0.6968	0.4046	1	0	0.807	0
2	1	702	1	2	1	0.6968	0.4046	1	1	0.538	81
2	1	703	1	2	1	0.6968	0.4046	1	1	0.616	73
2	1	704	1	1	3	0.6968	0.4046	0	1	0.496	85
2	1	705	1	1	1	0.6968	0.4046	1	1	0.499	85
2	1	706	0	1	1	0.6968	0.4046	0	1	0.422	9
2	1	707	1	2	1	0.6968	0.4046	0	1	0.490	86
2	1	708	0	1	3	0.6968	0.4046	0	1	0.549	8
2	1	709	0	1	3	0.6968	0.4046	1	1	0.605	7
2	1	710	0	2	1	0.6968	0.4046	1	1	0.537	8
2	1	711	1	2	1	0.6968	0.4046	1	1	0.529	82
2	1	712	0	1	3	0.6968	0.4046	0	1	0.501	8
2	1	713	1	2	2	0.6968	0.4046	0	1	0.462	89
2	1	714	0	1	3	0.6968	0.4046	0	1	0.501	8
2	1	715	0	1	3	0.6968	0.4046	0	1	0.487	9
2	1	716	1	2	2	0.6968	0.4046	1	1	0.526	82
2	1	717	0	2	2	0.6968	0.4046	1	1	0.531	8
2	1	718	0	2	2	0.6968	0.4046	0	1	0.472	9
2	1	719	0	1	3	0.6968	0.4046	1	1	0.572	8
2	1	720	0	2	2	0.6968	0.4046	1	1	0.540	8
