sub	sess	t	rew	loc	cue	co1	co2	or	resp	rt	rew_tot
8	1	1	1	2	3	0.1000	0.2611	1	1	0.455	90
8	1	2	1	2	2	0.1000	0.2611	1	1	0.416	93
8	1	3	0	1	3	0.1000	0.2611	1	1	0.405	9
8	1	4	0	1	3	0.1000	0.2611	1	1	0.486	9
8	1	5	0	1	2	0.1000	0.2611	1	1	0.336	10
8	1	6	0	2	2	0.1000	0.2611	0	1	1.464	5
8	1	7	1	1	3	0.1000	0.2611	0	0	0.456	0
8	1	8	1	2	1	0.1000	0.2611	1	1	0.376	97
8	1	9	0	1	1	0.1000	0.2611	1	1	0.418	9
8	1	10	1	1	2	0.1000	0.2611	1	1	0.606	74
8	1	11	1	1	3	0.1000	0.2611	0	1	0.473	88
8	1	12	0	2	1	0.1000	0.2611	1	1	0.412	9
8	1	13	0	2	2	0.1000	0.2611	0	1	0.620	7
8	1	14	0	2	2	0.1000	0.2611	1	1	0.569	8
8	1	15	0	1	1	0.1000	0.2611	0	1	0.479	9
8	1	16	1	1	2	0.1000	0.2611	1	1	0.501	85
8	1	17	0	2	1	0.1000	0.2611	0	1	0.468	9
8	1	18	0	2	2	0.1000	0.2611	1	1	0.421	9
8	1	19	1	2	1	0.1000	0.2611	0	1	0.493	86
8	1	20	0	2	2	0.1000	0.2611	1	1	0.543	8
8	1	21	0	1	3	0.1000	0.2611	0	0	0.584	0
8	1	22	1	1	1	0.1000	0.2611	1	1	0.449	90
8	1	23	0	1	1	0.1000	0.2611	1	1	0.601	7
8	1	24	1	2	1	0.1000	0.2611	1	1	0.397	95
8	1	25	0	2	2	0.1000	0.2611	1	1	0.481	9
8	1	26	1	2	2	0.1000	0.2611	0	1	0.569	78
8	1	27	0	2	1	0.1000	0.2611	0	1	0.509	8
8	1	28	1	2	1	0.1000	0.2611	0	1	0.541	81
8	1	29	1	1	1	0.1000	0.2611	1	1	0.512	84
8	1	30	1	2	2	0.1000	0.2611	0	1	0.407	94
8	1	31	1	2	2	0.1000	0.2611	1	1	0.406	94
8	1	32	1	1	3	0.1000	0.2611	0	1	0.499	85
8	1	33	1	2	2	0.1000	0.2611	1	1	0.353	100
8	1	34	1	2	1	0.1000	0.2611	0	1	0.431	92
8	1	35	1	1	1	0.1000	0.2611	0	0	0.482	0
8	1	36	0	1	3	0.1000	0.2611	1	0	0.481	0
8	1	37	0	1	3	0.1000	0.2611	1	1	0.485	9
8	1	38	1	1	3	0.1000	0.2611	0	1	0.515	84
8	1	39	1	1	2	0.1000	0.2611	0	1	0.474	88
8	1	40	0	2	3	0.1000	0.2611	0	1	0.548	8
8	1	41	1	2	2	0.1000	0.2611	1	1	0.420	93
8	1	42	1	1	3	0.1000	0.2611	1	0	0.468	0
8	1	43	1	2	2	0.1000	0.2611	0	1	0.537	81
8	1	44	1	1	1	0.1000	0.2611	0	1	0.601	75
8	1	45	1	2	2	0.1000	0.2611	0	1	0.471	88
8	1	46	1	2	1	0.1000	0.2611	1	1	0.405	94
8	1	47	0	2	2	0.1000	0.2611	1	1	0.408	9
8	1	48	1	2	1	0.1000	0.2611	0	1	0.445	90
8	1	49	0	1	3	0.1000	0.2611	1	1	0.397	10
8	1	50	0	1	3	0.1000	0.2611	1	0	0.427	0
8	1	51	0	2	1	0.1000	0.2611	0	1	0.463	9
8	1	52	0	1	2	0.1000	0.2611	1	1	0.406	9
8	1	53	0	1	2	0.1000	0.2611	0	1	0.416	9
8	1	54	1	2	2	0.1000	0.2611	1	1	0.383	97
8	1	55	1	2	2	0.1000	0.2611	0	1	0.503	85
8	1	56	0	1	2	0.1000	0.2611	0	0	0.445	0
8	1	57	1	1	1	0.1000	0.2611	0	1	0.455	89
8	1	58	0	1	1	0.1000	0.2611	0	1	0.406	9
8	1	59	1	2	2	0.1000	0.2611	1	1	0.408	94
8	1	60	0	2	3	0.1000	0.2611	1	1	0.532	8
8	1	61	1	2	3	0.1000	0.2611	0	1	0.461	89
8	1	62	0	1	3	0.1000	0.2611	0	1	0.440	9
8	1	63	0	1	3	0.1000	0.2611	0	1	0.372	10
8	1	64	0	1	3	0.1000	0.2611	0	1	0.425	9
8	1	65	0	2	2	0.1000	0.2611	1	1	0.355	10
8	1	66	1	2	3	0.1000	0.2611	0	0	0.438	0
8	1	67	0	2	3	0.1000	0.2611	1	1	0.532	8
8	1	68	1	2	2	0.1000	0.2611	0	1	0.516	83
8	1	69	0	2	1	0.1000	0.2611	1	1	0.411	9
8	1	70	0	2	2	0.1000	0.2611	0	1	0.316	10
8	1	71	0	1	3	0.1000	0.2611	1	1	0.438	9
8	1	72	0	1	3	0.1000	0.2611	0	1	0.446	9
8	1	73	0	1	1	0.1000	0.2611	0	1	0.414	9
8	1	74	1	1	1	0.1000	0.2611	1	1	0.457	89
8	1	75	0	1	3	0.1000	0.2611	1	0	0.413	0
8	1	76	0	2	1	0.1000	0.2611	1	1	0.450	9
8	1	77	0	2	2	0.1000	0.2611	1	1	0.442	9
8	1	78	1	1	1	0.1000	0.2611	0	1	0.378	97
8	1	79	0	1	1	0.1000	0.2611	1	1	0.439	9
8	1	80	1	1	3	0.1000	0.2611	1	1	0.532	82
8	1	81	0	2	3	0.1000	0.2611	0	1	0.602	7
8	1	82	0	1	1	0.1000	0.2611	0	1	0.396	10
8	1	83	1	1	3	0.1000	0.2611	1	1	0.437	91
8	1	84	1	1	3	0.1000	0.2611	0	1	0.387	96
8	1	85	0	1	1	0.1000	0.2611	0	1	0.505	8
8	1	86	0	2	2	0.1000	0.2611	0	1	0.543	8
8	1	87	1	2	2	0.1000	0.2611	1	1	0.431	92
8	1	88	0	2	2	0.1000	0.2611	0	1	0.455	9
8	1	89	0	1	1	0.1000	0.2611	1	1	0.444	9
8	1	90	1	1	2	0.1000	0.2611	0	1	0.379	97
8	1	91	1	2	1	0.1000	0.2611	1	1	0.387	96
8	1	92	0	2	1	0.1000	0.2611	0	0	0.391	0
8	1	93	1	1	3	0.1000	0.2611	0	1	0.367	98
8	1	94	1	1	1	0.1000	0.2611	0	0	0.429	0
8	1	95	0	2	1	0.1000	0.2611	1	1	0.422	9
8	1	96	1	2	2	0.1000	0.2611	1	1	0.373	98
8	1	97	0	1	3	0.1000	0.2611	0	1	0.481	9
8	1	98	0	2	2	0.1000	0.2611	0	0	0.329	0
8	1	99	0	2	2	0.1000	0.2611	1	1	0.651	7
8	1	100	0	1	3	0.1000	0.2611	0	1	0.360	10
8	1	101	1	2	1	0.1000	0.2611	0	1	0.503	85
8	1	102	1	2	2	0.1000	0.2611	0	0	0.371	0
8	1	103	1	1	3	0.1000	0.2611	0	1	0.463	89
8	1	104	1	1	1	0.1000	0.2611	1	1	0.604	75
8	1	105	0	2	2	0.1000	0.2611	0	1	0.453	9
8	1	106	1	1	1	0.1000	0.2611	1	1	0.411	94
8	1	107	1	2	1	0.1000	0.2611	1	1	0.561	79
8	1	108	1	1	3	0.1000	0.2611	1	1	0.477	87
8	1	109	0	2	1	0.1000	0.2611	1	1	0.428	9
8	1	110	1	1	3	0.1000	0.2611	1	0	0.543	0
8	1	111	1	2	3	0.1000	0.2611	1	1	0.440	91
8	1	112	1	1	3	0.1000	0.2611	1	1	0.421	93
8	1	113	0	2	1	0.1000	0.2611	0	1	0.478	9
8	1	114	0	1	3	0.1000	0.2611	0	1	0.580	8
8	1	115	1	1	3	0.1000	0.2611	0	1	0.492	86
8	1	116	0	2	2	0.1000	0.2611	0	1	0.374	10
8	1	117	0	1	1	0.1000	0.2611	1	1	0.578	8
8	1	118	1	1	3	0.1000	0.2611	1	1	0.454	90
8	1	119	1	1	3	0.1000	0.2611	1	1	0.447	90
8	1	120	1	2	2	0.1000	0.2611	0	1	0.488	86
8	1	121	0	1	1	0.1000	0.2611	0	1	0.557	8
8	1	122	0	2	2	0.1000	0.2611	1	1	0.466	9
8	1	123	0	1	3	0.1000	0.2611	1	1	0.503	8
8	1	124	1	2	2	0.1000	0.2611	0	1	0.513	84
8	1	125	0	2	2	0.1000	0.2611	1	1	0.407	9
8	1	126	1	1	1	0.1000	0.2611	0	1	0.404	95
8	1	127	0	1	2	0.1000	0.2611	0	1	0.609	7
8	1	128	0	2	1	0.1000	0.2611	0	0	0.455	0
8	1	129	1	1	1	0.1000	0.2611	1	1	0.477	87
8	1	130	1	1	3	0.1000	0.2611	1	1	0.488	86
8	1	131	1	2	2	0.1000	0.2611	1	1	0.397	95
8	1	132	1	2	2	0.1000	0.2611	0	1	0.393	96
8	1	133	1	1	3	0.1000	0.2611	0	1	0.443	91
8	1	134	1	1	1	0.1000	0.2611	1	1	0.429	92
8	1	135	1	1	3	0.1000	0.2611	1	1	0.475	87
8	1	136	0	2	2	0.1000	0.2611	0	1	0.449	9
8	1	137	0	1	1	0.1000	0.2611	1	1	0.459	9
8	1	138	1	2	1	0.1000	0.2611	0	1	0.413	94
8	1	139	1	1	3	0.1000	0.2611	1	1	0.485	86
8	1	140	0	2	2	0.1000	0.2611	1	1	0.447	9
8	1	141	0	2	2	0.1000	0.2611	1	1	0.375	10
8	1	142	1	1	3	0.1000	0.2611	1	1	0.522	83
8	1	143	0	2	1	0.1000	0.2611	1	1	0.375	10
8	1	144	1	2	3	0.1000	0.2611	0	0	0.400	0
8	1	145	1	2	1	0.1000	0.2611	0	1	0.363	99
8	1	146	0	1	3	0.1000	0.2611	0	0	0.414	0
8	1	147	1	2	1	0.1000	0.2611	0	1	0.453	90
8	1	148	0	2	2	0.1000	0.2611	1	1	0.403	9
8	1	149	0	1	1	0.1000	0.2611	0	1	0.427	9
8	1	150	1	2	1	0.1000	0.2611	0	1	0.460	89
8	1	151	1	2	2	0.1000	0.2611	1	1	0.448	90
8	1	152	0	2	1	0.1000	0.2611	0	1	0.465	9
8	1	153	0	1	1	0.1000	0.2611	1	1	0.470	9
8	1	154	1	2	2	0.1000	0.2611	0	1	0.362	99
8	1	155	1	2	1	0.1000	0.2611	1	1	0.331	100
8	1	156	0	1	1	0.1000	0.2611	0	1	0.385	10
8	1	157	1	2	2	0.1000	0.2611	0	1	0.506	84
8	1	158	1	1	3	0.1000	0.2611	0	0	0.349	0
8	1	159	1	2	2	0.1000	0.2611	1	1	0.413	94
8	1	160	1	2	1	0.1000	0.2611	1	1	0.437	91
8	1	161	1	1	3	0.1000	0.2611	0	1	0.470	88
8	1	162	0	1	1	0.1000	0.2611	1	0	0.415	0
8	1	163	0	2	1	0.1000	0.2611	0	1	0.525	8
8	1	164	0	2	2	0.1000	0.2611	0	1	0.445	9
8	1	165	1	2	1	0.1000	0.2611	0	1	0.374	98
8	1	166	1	2	2	0.1000	0.2611	1	1	0.351	100
8	1	167	1	1	3	0.1000	0.2611	1	0	0.569	0
8	1	168	0	2	1	0.1000	0.2611	1	1	0.379	10
8	1	169	0	2	1	0.1000	0.2611	0	1	0.474	9
8	1	170	0	2	2	0.1000	0.2611	1	1	0.362	10
8	1	171	1	2	2	0.1000	0.2611	0	1	0.413	94
8	1	172	0	1	3	0.1000	0.2611	0	1	0.503	8
8	1	173	1	2	3	0.1000	0.2611	1	1	0.445	91
8	1	174	0	2	2	0.1000	0.2611	0	1	0.478	9
8	1	175	1	2	3	0.1000	0.2611	1	1	0.348	100
8	1	176	0	1	3	0.1000	0.2611	0	1	0.366	10
8	1	177	0	2	1	0.1000	0.2611	1	1	0.379	10
8	1	178	1	1	2	0.1000	0.2611	0	1	0.337	100
8	1	179	1	2	2	0.1000	0.2611	1	1	0.423	93
8	1	180	0	2	3	0.1000	0.2611	0	1	0.479	9
8	1	181	1	1	3	0.1000	0.2611	0	1	0.493	86
8	1	182	0	1	1	0.1000	0.2611	1	1	0.482	9
8	1	183	1	2	1	0.1000	0.2611	1	1	0.393	96
8	1	184	0	2	2	0.1000	0.2611	0	1	0.461	9
8	1	185	0	1	3	0.1000	0.2611	0	1	0.432	9
8	1	186	1	1	2	0.1000	0.2611	1	1	0.373	98
8	1	187	0	2	3	0.1000	0.2611	1	1	0.461	9
8	1	188	0	1	1	0.1000	0.2611	0	1	0.444	9
8	1	189	1	1	1	0.1000	0.2611	0	1	0.397	95
8	1	190	0	2	2	0.1000	0.2611	0	1	0.551	8
8	1	191	1	1	1	0.1000	0.2611	1	1	0.384	97
8	1	192	1	1	1	0.1000	0.2611	1	1	0.421	93
8	1	193	1	1	1	0.1000	0.2611	1	1	0.444	91
8	1	194	1	1	1	0.1000	0.2611	0	0	0.436	0
8	1	195	1	2	2	0.1000	0.2611	1	1	0.463	89
8	1	196	1	2	2	0.1000	0.2611	1	1	0.427	92
8	1	197	0	2	3	0.1000	0.2611	0	1	0.494	9
8	1	198	0	1	3	0.1000	0.2611	1	1	0.807	5
8	1	199	0	2	1	0.1000	0.2611	1	1	0.391	10
8	1	200	0	1	3	0.1000	0.2611	1	1	0.465	9
8	1	201	0	1	3	0.1000	0.2611	1	1	0.420	9
8	1	202	0	2	2	0.1000	0.2611	1	1	0.418	9
8	1	203	0	1	3	0.1000	0.2611	0	1	0.400	10
8	1	204	0	2	3	0.1000	0.2611	1	1	0.334	10
8	1	205	0	1	3	0.1000	0.2611	1	1	0.549	8
8	1	206	1	2	1	0.1000	0.2611	1	1	0.373	98
8	1	207	1	2	1	0.1000	0.2611	1	1	0.342	100
8	1	208	1	1	3	0.1000	0.2611	0	1	0.539	81
8	1	209	0	1	3	0.1000	0.2611	0	1	0.417	9
8	1	210	1	2	2	0.1000	0.2611	0	1	0.524	83
8	1	211	0	1	2	0.1000	0.2611	1	1	0.432	9
8	1	212	0	2	1	0.1000	0.2611	0	0	0.379	0
8	1	213	0	2	2	0.1000	0.2611	0	1	0.533	8
8	1	214	0	2	2	0.1000	0.2611	0	1	0.484	9
8	1	215	0	1	1	0.1000	0.2611	1	1	0.429	9
8	1	216	1	1	1	0.1000	0.2611	0	1	0.396	95
8	1	217	1	1	2	0.1000	0.2611	1	1	0.367	98
8	1	218	1	1	3	0.1000	0.2611	1	0	0.348	0
8	1	219	0	1	2	0.1000	0.2611	1	1	0.365	10
8	1	220	0	2	1	0.1000	0.2611	1	1	0.420	9
8	1	221	0	1	1	0.1000	0.2611	0	1	0.481	9
8	1	222	1	1	2	0.1000	0.2611	0	1	0.484	87
8	1	223	1	1	3	0.1000	0.2611	1	0	0.338	0
8	1	224	1	1	3	0.1000	0.2611	0	1	0.380	97
8	1	225	1	2	2	0.1000	0.2611	1	0	0.383	0
8	1	226	0	1	3	0.1000	0.2611	0	1	0.518	8
8	1	227	0	2	2	0.1000	0.2611	0	1	0.467	9
8	1	228	1	2	2	0.1000	0.2611	0	0	0.346	0
8	1	229	0	1	3	0.1000	0.2611	1	1	0.667	7
8	1	230	1	1	1	0.1000	0.2611	0	1	0.353	100
8	1	231	0	1	2	0.1000	0.2611	0	1	0.577	8
8	1	232	1	1	3	0.1000	0.2611	0	1	0.435	91
8	1	233	1	1	3	0.1000	0.2611	0	1	0.391	96
8	1	234	1	2	2	0.1000	0.2611	0	1	0.447	90
8	1	235	0	1	3	0.1000	0.2611	1	1	0.471	9
8	1	236	1	2	3	0.1000	0.2611	0	0	0.440	0
8	1	237	1	1	3	0.1000	0.2611	1	0	0.412	0
8	1	238	0	2	2	0.1000	0.2611	1	1	0.445	9
8	1	239	0	1	3	0.1000	0.2611	0	1	0.516	8
8	1	240	0	1	3	0.1000	0.2611	1	0	0.710	0
8	1	241	0	2	2	0.1000	0.2611	0	1	0.501	8
8	1	242	1	2	2	0.1000	0.2611	1	1	0.435	92
8	1	243	0	2	1	0.1000	0.2611	0	1	0.410	9
8	1	244	1	1	1	0.1000	0.2611	0	1	0.379	97
8	1	245	0	2	1	0.1000	0.2611	1	1	0.397	10
8	1	246	1	2	1	0.1000	0.2611	0	1	0.466	88
8	1	247	1	2	2	0.1000	0.2611	1	1	0.448	90
8	1	248	0	2	2	0.1000	0.2611	1	1	0.407	9
8	1	249	1	1	1	0.1000	0.2611	0	1	0.444	91
8	1	250	0	2	2	0.1000	0.2611	1	1	0.381	10
8	1	251	1	2	3	0.1000	0.2611	0	1	0.502	85
8	1	252	0	2	2	0.1000	0.2611	1	1	0.384	10
8	1	253	0	1	3	0.1000	0.2611	0	1	0.481	9
8	1	254	1	1	1	0.1000	0.2611	1	0	0.445	0
8	1	255	0	1	3	0.1000	0.2611	1	1	0.434	9
8	1	256	1	2	2	0.1000	0.2611	0	1	0.367	98
8	1	257	1	2	1	0.1000	0.2611	0	1	0.450	90
8	1	258	1	2	2	0.1000	0.2611	0	1	0.497	85
8	1	259	0	1	2	0.1000	0.2611	1	1	0.439	9
8	1	260	1	2	2	0.1000	0.2611	0	1	0.505	84
8	1	261	1	2	2	0.1000	0.2611	1	1	0.415	93
8	1	262	0	2	2	0.1000	0.2611	0	1	0.324	10
8	1	263	1	2	2	0.1000	0.2611	0	1	0.450	90
8	1	264	0	1	3	0.1000	0.2611	1	1	0.408	9
8	1	265	1	1	1	0.1000	0.2611	1	1	0.593	76
8	1	266	1	2	2	0.1000	0.2611	1	1	0.395	95
8	1	267	0	1	1	0.1000	0.2611	0	1	0.381	10
8	1	268	1	1	1	0.1000	0.2611	0	1	0.379	97
8	1	269	0	2	1	0.1000	0.2611	1	1	0.500	9
8	1	270	1	1	3	0.1000	0.2611	1	0	0.456	0
8	1	271	1	2	3	0.1000	0.2611	0	1	0.474	88
8	1	272	1	1	3	0.1000	0.2611	0	0	0.417	0
8	1	273	1	1	3	0.1000	0.2611	0	1	0.488	86
8	1	274	1	1	2	0.1000	0.2611	0	1	0.578	77
8	1	275	1	1	1	0.1000	0.2611	1	0	0.561	0
8	1	276	0	1	3	0.1000	0.2611	0	1	0.518	8
8	1	277	1	2	1	0.1000	0.2611	0	1	0.502	85
8	1	278	0	2	1	0.1000	0.2611	0	1	0.464	9
8	1	279	1	2	1	0.1000	0.2611	1	1	0.398	95
8	1	280	0	1	2	0.1000	0.2611	0	1	0.403	9
8	1	281	0	2	2	0.1000	0.2611	0	1	0.501	8
8	1	282	1	2	2	0.1000	0.2611	0	1	0.471	88
8	1	283	1	1	3	0.1000	0.2611	1	1	0.479	87
8	1	284	1	1	3	0.1000	0.2611	0	1	0.422	93
8	1	285	0	2	1	0.1000	0.2611	0	1	0.456	9
8	1	286	0	1	1	0.1000	0.2611	0	1	0.639	7
8	1	287	0	1	1	0.1000	0.2611	1	1	0.591	8
8	1	288	0	2	2	0.1000	0.2611	0	1	0.407	9
8	1	289	0	1	3	0.1000	0.2611	0	1	0.488	9
8	1	290	1	1	3	0.1000	0.2611	1	1	0.503	85
8	1	291	0	1	1	0.1000	0.2611	0	1	0.458	9
8	1	292	0	1	3	0.1000	0.2611	1	1	0.423	9
8	1	293	1	2	3	0.1000	0.2611	1	1	0.430	92
8	1	294	1	1	1	0.1000	0.2611	1	1	0.413	94
8	1	295	1	2	2	0.1000	0.2611	1	1	0.450	90
8	1	296	0	2	2	0.1000	0.2611	1	1	0.396	10
8	1	297	1	1	3	0.1000	0.2611	0	1	0.481	87
8	1	298	1	2	1	0.1000	0.2611	1	1	0.417	93
8	1	299	1	2	2	0.1000	0.2611	1	1	0.420	93
8	1	300	0	2	1	0.1000	0.2611	1	1	0.379	10
8	1	301	1	1	3	0.1000	0.2611	0	1	0.457	89
8	1	302	1	2	2	0.1000	0.2611	1	1	0.340	100
8	1	303	0	2	3	0.1000	0.2611	0	0	0.398	0
8	1	304	0	1	1	0.1000	0.2611	0	1	0.383	10
8	1	305	0	2	2	0.1000	0.2611	0	1	0.539	8
8	1	306	0	1	3	0.1000	0.2611	1	1	0.439	9
8	1	307	0	2	2	0.1000	0.2611	1	1	0.395	10
8	1	308	0	1	3	0.1000	0.2611	1	1	0.482	9
8	1	309	0	2	2	0.1000	0.2611	0	1	0.464	9
8	1	310	0	1	3	0.1000	0.2611	1	1	0.436	9
8	1	311	0	1	3	0.1000	0.2611	0	1	0.429	9
8	1	312	1	2	1	0.1000	0.2611	1	1	0.362	99
8	1	313	0	1	1	0.1000	0.2611	1	0	0.413	0
8	1	314	1	2	1	0.1000	0.2611	0	1	0.593	76
8	1	315	0	1	1	0.1000	0.2611	1	1	0.401	9
8	1	316	0	1	3	0.1000	0.2611	0	1	0.424	9
8	1	317	1	2	1	0.1000	0.2611	0	1	0.489	86
8	1	318	1	1	3	0.1000	0.2611	1	1	0.394	96
8	1	319	0	1	3	0.1000	0.2611	0	1	0.457	9
8	1	320	0	1	3	0.1000	0.2611	1	1	0.429	9
8	1	321	0	1	1	0.1000	0.2611	1	1	0.525	8
8	1	322	1	2	1	0.1000	0.2611	1	1	0.400	95
8	1	323	1	1	2	0.1000	0.2611	1	1	0.480	87
8	1	324	1	1	3	0.1000	0.2611	0	1	0.381	97
8	1	325	0	2	2	0.1000	0.2611	0	1	0.504	8
8	1	326	1	2	2	0.1000	0.2611	0	1	0.480	87
8	1	327	1	1	3	0.1000	0.2611	1	1	0.405	94
8	1	328	0	2	2	0.1000	0.2611	1	1	0.472	9
8	1	329	0	1	1	0.1000	0.2611	0	1	0.365	10
8	1	330	0	2	2	0.1000	0.2611	0	1	0.512	8
8	1	331	0	2	3	0.1000	0.2611	1	1	0.359	10
8	1	332	1	1	1	0.1000	0.2611	0	1	0.370	98
8	1	333	1	2	2	0.1000	0.2611	0	1	0.514	84
8	1	334	1	1	3	0.1000	0.2611	0	1	0.409	94
8	1	335	0	2	1	0.1000	0.2611	1	1	0.388	10
8	1	336	1	1	3	0.1000	0.2611	1	1	0.536	81
8	1	337	1	2	3	0.1000	0.2611	1	1	0.351	100
8	1	338	0	2	1	0.1000	0.2611	0	1	0.472	9
8	1	339	1	2	1	0.1000	0.2611	1	1	0.375	97
8	1	340	0	2	1	0.1000	0.2611	1	1	0.412	9
8	1	341	1	1	3	0.1000	0.2611	1	1	0.552	80
8	1	342	0	1	2	0.1000	0.2611	0	1	0.387	10
8	1	343	1	2	2	0.1000	0.2611	1	1	0.297	100
8	1	344	1	1	2	0.1000	0.2611	0	1	0.519	83
8	1	345	0	2	3	0.1000	0.2611	1	1	0.394	10
8	1	346	0	2	3	0.1000	0.2611	0	1	0.461	9
8	1	347	0	1	3	0.1000	0.2611	0	1	0.531	8
8	1	348	1	1	2	0.1000	0.2611	1	1	0.526	82
8	1	349	1	1	3	0.1000	0.2611	1	0	0.431	0
8	1	350	0	2	2	0.1000	0.2611	1	1	0.417	9
8	1	351	0	1	3	0.1000	0.2611	0	1	0.526	8
8	1	352	0	2	1	0.1000	0.2611	0	1	0.502	8
8	1	353	0	1	2	0.1000	0.2611	1	1	0.416	9
8	1	354	1	1	1	0.1000	0.2611	0	1	0.411	94
8	1	355	0	1	1	0.1000	0.2611	1	0	0.406	0
8	1	356	0	2	2	0.1000	0.2611	1	0	0.525	0
8	1	357	0	1	3	0.1000	0.2611	1	1	0.544	8
8	1	358	1	2	2	0.1000	0.2611	0	1	0.514	84
8	1	359	1	1	3	0.1000	0.2611	0	1	0.404	95
8	1	360	1	1	1	0.1000	0.2611	1	0	0.451	0
8	1	361	0	2	2	0.1000	0.2611	0	1	0.442	9
8	1	362	1	2	2	0.1000	0.2611	0	1	0.410	94
8	1	363	0	2	3	0.1000	0.2611	0	1	0.443	9
8	1	364	1	1	3	0.1000	0.2611	0	1	0.384	97
8	1	365	1	1	3	0.1000	0.2611	0	1	0.431	92
8	1	366	0	2	2	0.1000	0.2611	0	1	0.408	9
8	1	367	0	2	2	0.1000	0.2611	1	1	0.352	10
8	1	368	0	1	3	0.1000	0.2611	0	1	0.426	9
8	1	369	1	1	3	0.1000	0.2611	0	1	0.452	90
8	1	370	0	1	2	0.1000	0.2611	1	0	0.448	0
8	1	371	0	1	2	0.1000	0.2611	0	1	0.615	7
8	1	372	1	1	1	0.1000	0.2611	0	1	0.477	87
8	1	373	0	2	2	0.1000	0.2611	1	1	0.423	9
8	1	374	0	2	1	0.1000	0.2611	0	1	0.463	9
8	1	375	1	1	2	0.1000	0.2611	0	1	0.367	98
8	1	376	1	2	1	0.1000	0.2611	0	1	0.381	97
8	1	377	0	1	3	0.1000	0.2611	0	0	0.388	0
8	1	378	0	1	1	0.1000	0.2611	0	1	0.389	10
8	1	379	0	2	2	0.1000	0.2611	0	0	0.536	0
8	1	380	0	1	3	0.1000	0.2611	0	1	0.380	10
8	1	381	1	2	2	0.1000	0.2611	1	1	0.465	89
8	1	382	1	1	1	0.1000	0.2611	1	1	0.451	90
8	1	383	0	2	3	0.1000	0.2611	1	1	0.406	9
8	1	384	0	1	3	0.1000	0.2611	1	0	0.422	0
8	1	385	0	1	3	0.1000	0.2611	0	1	0.583	8
8	1	386	0	2	1	0.1000	0.2611	0	1	0.467	9
8	1	387	0	1	3	0.1000	0.2611	0	1	0.368	10
8	1	388	0	2	1	0.1000	0.2611	1	1	0.530	8
8	1	389	0	2	1	0.1000	0.2611	0	1	0.581	8
8	1	390	0	2	2	0.1000	0.2611	0	1	0.366	10
8	1	391	1	2	2	0.1000	0.2611	0	1	0.433	92
8	1	392	1	1	3	0.1000	0.2611	1	1	0.485	86
8	1	393	1	2	1	0.1000	0.2611	0	1	0.436	91
8	1	394	0	2	2	0.1000	0.2611	1	1	0.420	9
8	1	395	1	1	3	0.1000	0.2611	1	1	0.532	82
8	1	396	1	2	2	0.1000	0.2611	0	1	0.451	90
8	1	397	1	2	1	0.1000	0.2611	1	1	0.374	98
8	1	398	1	1	3	0.1000	0.2611	1	1	0.482	87
8	1	399	0	1	3	0.1000	0.2611	0	1	0.403	9
8	1	400	1	1	3	0.1000	0.2611	1	0	0.378	0
8	1	401	1	2	2	0.1000	0.2611	1	1	0.381	97
8	1	402	0	2	1	0.1000	0.2611	1	1	0.393	10
8	1	403	0	1	1	0.1000	0.2611	0	1	0.402	9
8	1	404	0	2	2	0.1000	0.2611	1	1	0.371	10
8	1	405	1	2	1	0.1000	0.2611	1	1	0.395	95
8	1	406	1	1	1	0.1000	0.2611	1	0	0.457	0
8	1	407	1	2	1	0.1000	0.2611	0	1	0.543	81
8	1	408	1	2	2	0.1000	0.2611	0	1	0.522	83
8	1	409	1	2	3	0.1000	0.2611	0	1	0.475	88
8	1	410	1	1	3	0.1000	0.2611	0	1	0.530	82
8	1	411	0	1	3	0.1000	0.2611	1	1	0.468	9
8	1	412	1	2	3	0.1000	0.2611	1	1	0.404	95
8	1	413	0	1	3	0.1000	0.2611	0	1	0.430	9
8	1	414	1	1	1	0.1000	0.2611	1	1	0.458	89
8	1	415	1	1	1	0.1000	0.2611	0	1	0.426	92
8	1	416	0	1	2	0.1000	0.2611	0	1	0.441	9
8	1	417	1	2	1	0.1000	0.2611	1	1	0.402	95
8	1	418	1	1	1	0.1000	0.2611	0	1	0.430	92
8	1	419	1	1	3	0.1000	0.2611	0	1	0.532	82
8	1	420	0	2	3	0.1000	0.2611	1	1	0.386	10
8	1	421	0	2	2	0.1000	0.2611	0	1	0.505	8
8	1	422	1	2	3	0.1000	0.2611	0	1	0.480	87
8	1	423	0	2	2	0.1000	0.2611	0	1	0.444	9
8	1	424	1	1	1	0.1000	0.2611	1	1	0.470	88
8	1	425	1	2	2	0.1000	0.2611	1	0	0.414	0
8	1	426	1	1	2	0.1000	0.2611	0	1	0.433	92
8	1	427	1	1	3	0.1000	0.2611	1	1	0.456	89
8	1	428	0	1	1	0.1000	0.2611	1	1	0.441	9
8	1	429	1	2	1	0.1000	0.2611	1	1	0.373	98
8	1	430	1	1	2	0.1000	0.2611	1	1	0.505	85
8	1	431	1	2	2	0.1000	0.2611	1	1	0.447	90
8	1	432	1	2	1	0.1000	0.2611	0	1	0.475	87
8	1	433	1	2	2	0.1000	0.2611	1	1	0.395	95
8	1	434	1	2	2	0.1000	0.2611	0	1	0.511	84
8	1	435	0	2	3	0.1000	0.2611	0	1	0.505	8
8	1	436	0	2	2	0.1000	0.2611	1	1	0.379	10
8	1	437	0	1	1	0.1000	0.2611	1	1	0.504	8
8	1	438	0	1	3	0.1000	0.2611	1	1	0.446	9
8	1	439	1	1	1	0.1000	0.2611	1	1	0.515	84
8	1	440	0	1	1	0.1000	0.2611	1	1	0.469	9
8	1	441	0	1	3	0.1000	0.2611	1	1	0.424	9
8	1	442	1	2	3	0.1000	0.2611	1	1	0.363	99
8	1	443	1	1	3	0.1000	0.2611	0	1	0.449	90
8	1	444	0	2	2	0.1000	0.2611	1	1	0.423	9
8	1	445	1	1	3	0.1000	0.2611	0	1	0.453	90
8	1	446	1	2	1	0.1000	0.2611	0	1	0.545	81
8	1	447	0	1	1	0.1000	0.2611	0	1	0.616	7
8	1	448	0	1	1	0.1000	0.2611	0	1	0.445	9
8	1	449	1	2	2	0.1000	0.2611	0	1	0.460	89
8	1	450	0	1	3	0.1000	0.2611	1	0	0.438	0
8	1	451	1	2	2	0.1000	0.2611	1	1	0.439	91
8	1	452	1	2	2	0.1000	0.2611	0	1	0.496	85
8	1	453	0	2	1	0.1000	0.2611	0	1	0.431	9
8	1	454	1	1	1	0.1000	0.2611	0	1	0.648	70
8	1	455	0	1	3	0.1000	0.2611	1	1	0.510	8
8	1	456	0	1	2	0.1000	0.2611	1	1	0.614	7
8	1	457	0	2	1	0.1000	0.2611	1	1	0.408	9
8	1	458	0	1	1	0.1000	0.2611	0	1	0.389	10
8	1	459	1	2	2	0.1000	0.2611	0	1	0.446	90
8	1	460	1	1	3	0.1000	0.2611	1	1	0.536	81
8	1	461	0	2	1	0.1000	0.2611	1	1	0.399	10
8	1	462	0	1	3	0.1000	0.2611	1	0	0.353	0
8	1	463	1	2	1	0.1000	0.2611	1	1	0.419	93
8	1	464	0	2	2	0.1000	0.2611	1	1	0.374	10
8	1	465	0	2	1	0.1000	0.2611	1	1	0.377	10
8	1	466	1	2	2	0.1000	0.2611	1	1	0.375	97
8	1	467	1	1	3	0.1000	0.2611	1	1	0.633	72
8	1	468	0	2	1	0.1000	0.2611	0	0	0.407	0
8	1	469	0	1	3	0.1000	0.2611	1	1	0.480	9
8	1	470	1	1	2	0.1000	0.2611	1	1	0.475	88
8	1	471	1	1	3	0.1000	0.2611	1	1	0.444	91
8	1	472	1	2	2	0.1000	0.2611	1	1	0.383	97
8	1	473	0	2	2	0.1000	0.2611	0	1	0.592	8
8	1	474	1	1	1	0.1000	0.2611	0	0	0.459	0
8	1	475	0	1	1	0.1000	0.2611	1	1	0.554	8
8	1	476	0	2	2	0.1000	0.2611	1	1	0.407	9
8	1	477	0	1	3	0.1000	0.2611	0	1	0.537	8
8	1	478	0	2	2	0.1000	0.2611	0	1	0.471	9
8	1	479	1	1	3	0.1000	0.2611	0	1	0.462	89
8	1	480	0	1	1	0.1000	0.2611	1	1	0.524	8
8	1	481	1	1	1	0.1000	0.2611	0	1	0.508	84
8	1	482	0	2	2	0.1000	0.2611	1	1	0.357	10
8	1	483	0	1	3	0.1000	0.2611	1	0	0.424	0
8	1	484	0	2	1	0.1000	0.2611	1	1	0.370	10
8	1	485	1	2	1	0.1000	0.2611	1	1	0.477	87
8	1	486	1	2	2	0.1000	0.2611	0	1	0.455	90
8	1	487	0	1	3	0.1000	0.2611	1	1	0.426	9
8	1	488	0	2	2	0.1000	0.2611	0	0	0.432	0
8	1	489	0	2	3	0.1000	0.2611	0	1	0.370	10
8	1	490	0	1	1	0.1000	0.2611	0	1	0.623	7
8	1	491	1	2	1	0.1000	0.2611	1	1	0.422	93
8	1	492	1	1	1	0.1000	0.2611	1	1	0.499	85
8	1	493	1	1	3	0.1000	0.2611	0	1	0.439	91
8	1	494	0	1	3	0.1000	0.2611	0	1	0.499	9
8	1	495	1	2	3	0.1000	0.2611	1	1	0.387	96
8	1	496	0	2	1	0.1000	0.2611	0	1	0.522	8
8	1	497	0	1	3	0.1000	0.2611	1	1	0.612	7
8	1	498	1	1	1	0.1000	0.2611	0	1	0.447	90
8	1	499	1	1	3	0.1000	0.2611	0	1	0.423	93
8	1	500	0	1	3	0.1000	0.2611	0	1	0.372	10
8	1	501	0	1	3	0.1000	0.2611	1	0	0.368	0
8	1	502	1	1	3	0.1000	0.2611	1	1	0.452	90
8	1	503	0	1	3	0.1000	0.2611	0	1	0.455	9
8	1	504	1	1	1	0.1000	0.2611	0	0	0.400	0
8	1	505	1	2	2	0.1000	0.2611	0	1	0.488	86
8	1	506	1	1	1	0.1000	0.2611	1	0	0.538	0
8	1	507	1	2	2	0.1000	0.2611	1	1	0.393	96
8	1	508	0	1	1	0.1000	0.2611	1	0	0.424	0
8	1	509	0	2	1	0.1000	0.2611	1	1	0.428	9
8	1	510	0	1	3	0.1000	0.2611	0	1	0.426	9
8	1	511	0	2	2	0.1000	0.2611	0	1	0.442	9
8	1	512	1	1	2	0.1000	0.2611	1	1	0.470	88
8	1	513	1	2	2	0.1000	0.2611	1	1	0.451	90
8	1	514	0	1	1	0.1000	0.2611	0	1	0.524	8
8	1	515	1	1	3	0.1000	0.2611	0	1	0.475	88
8	1	516	1	2	2	0.1000	0.2611	1	1	0.400	95
8	1	517	1	2	3	0.1000	0.2611	0	1	0.471	88
8	1	518	1	1	3	0.1000	0.2611	0	1	0.543	81
8	1	519	1	1	3	0.1000	0.2611	0	1	0.457	89
8	1	520	1	2	2	0.1000	0.2611	1	1	0.427	92
8	1	521	1	2	2	0.1000	0.2611	0	1	0.405	95
8	1	522	1	2	3	0.1000	0.2611	1	1	0.410	94
8	1	523	0	1	1	0.1000	0.2611	0	1	0.422	9
8	1	524	1	1	1	0.1000	0.2611	1	1	0.403	95
8	1	525	0	2	2	0.1000	0.2611	0	1	0.509	8
8	1	526	0	2	1	0.1000	0.2611	0	1	0.510	8
8	1	527	1	1	3	0.1000	0.2611	1	0	0.413	0
8	1	528	1	1	2	0.1000	0.2611	0	0	0.431	0
8	1	529	1	2	1	0.1000	0.2611	0	1	0.448	90
8	1	530	1	1	3	0.1000	0.2611	1	0	0.390	0
8	1	531	0	2	2	0.1000	0.2611	0	1	0.451	9
8	1	532	0	2	1	0.1000	0.2611	1	1	0.379	10
8	1	533	0	2	1	0.1000	0.2611	1	1	0.397	10
8	1	534	0	1	3	0.1000	0.2611	1	1	0.436	9
8	1	535	1	2	2	0.1000	0.2611	1	1	0.410	94
8	1	536	1	2	2	0.1000	0.2611	1	1	0.411	94
8	1	537	0	1	1	0.1000	0.2611	1	0	0.474	0
8	1	538	0	2	1	0.1000	0.2611	0	1	0.491	9
8	1	539	1	1	3	0.1000	0.2611	1	1	0.434	92
8	1	540	1	1	1	0.1000	0.2611	1	1	0.437	91
8	1	541	1	1	3	0.1000	0.2611	1	1	0.459	89
8	1	542	1	2	2	0.1000	0.2611	0	0	0.401	0
8	1	543	0	2	2	0.1000	0.2611	0	1	0.466	9
8	1	544	0	2	2	0.1000	0.2611	1	1	0.372	10
8	1	545	1	2	1	0.1000	0.2611	0	1	0.344	100
8	1	546	0	2	2	0.1000	0.2611	1	1	0.336	10
8	1	547	0	1	2	0.1000	0.2611	1	1	0.412	9
8	1	548	1	2	2	0.1000	0.2611	0	1	0.382	97
8	1	549	0	1	3	0.1000	0.2611	0	1	0.507	8
8	1	550	0	2	2	0.1000	0.2611	1	1	0.343	10
8	1	551	0	2	3	0.1000	0.2611	1	1	0.410	9
8	1	552	0	2	1	0.1000	0.2611	0	1	0.421	9
8	1	553	1	1	3	0.1000	0.2611	0	1	0.615	74
8	1	554	1	1	2	0.1000	0.2611	0	1	0.365	99
8	1	555	1	1	1	0.1000	0.2611	1	1	0.425	93
8	1	556	0	2	2	0.1000	0.2611	1	1	0.445	9
8	1	557	1	2	1	0.1000	0.2611	1	1	0.421	93
8	1	558	1	2	1	0.1000	0.2611	0	1	0.499	85
8	1	559	1	2	2	0.1000	0.2611	0	1	0.441	91
8	1	560	1	1	3	0.1000	0.2611	1	1	0.518	83
8	1	561	0	1	2	0.1000	0.2611	1	1	0.515	8
8	1	562	0	1	3	0.1000	0.2611	1	1	0.453	9
8	1	563	1	1	3	0.1000	0.2611	0	1	0.410	94
8	1	564	0	1	3	0.1000	0.2611	0	1	0.492	9
8	1	565	1	2	2	0.1000	0.2611	1	1	0.409	94
8	1	566	0	1	1	0.1000	0.2611	0	1	0.419	9
8	1	567	0	2	1	0.1000	0.2611	1	1	0.371	10
8	1	568	0	1	3	0.1000	0.2611	1	1	0.480	9
8	1	569	0	2	2	0.1000	0.2611	0	1	0.430	9
8	1	570	1	1	3	0.1000	0.2611	1	1	0.438	91
8	1	571	0	2	2	0.1000	0.2611	1	1	0.500	8
8	1	572	0	1	3	0.1000	0.2611	0	0	0.439	0
8	1	573	0	1	3	0.1000	0.2611	1	1	0.811	5
8	1	574	0	1	1	0.1000	0.2611	1	1	0.512	8
8	1	575	0	2	2	0.1000	0.2611	1	1	0.502	8
8	1	576	0	2	1	0.1000	0.2611	0	1	0.653	7
8	1	577	0	1	2	0.1000	0.2611	0	1	0.550	8
8	1	578	0	1	2	0.1000	0.2611	0	1	0.479	9
8	1	579	0	1	3	0.1000	0.2611	0	1	0.461	9
8	1	580	0	1	1	0.1000	0.2611	1	1	0.491	9
8	1	581	0	2	2	0.1000	0.2611	0	1	0.536	8
8	1	582	1	2	2	0.1000	0.2611	1	1	0.397	95
8	1	583	0	1	1	0.1000	0.2611	1	0	0.376	0
8	1	584	1	2	1	0.1000	0.2611	0	1	0.526	82
8	1	585	1	1	3	0.1000	0.2611	1	0	0.422	0
8	1	586	0	2	2	0.1000	0.2611	0	1	0.451	9
8	1	587	0	1	1	0.1000	0.2611	0	1	0.438	9
8	1	588	1	1	1	0.1000	0.2611	0	1	0.401	95
8	1	589	1	1	1	0.1000	0.2611	0	1	0.459	89
8	1	590	1	2	2	0.1000	0.2611	0	1	0.435	91
8	1	591	0	2	3	0.1000	0.2611	0	1	0.485	9
8	1	592	1	1	2	0.1000	0.2611	1	0	0.408	0
8	1	593	0	2	2	0.1000	0.2611	1	1	0.465	9
8	1	594	1	2	1	0.1000	0.2611	1	1	0.436	91
8	1	595	1	2	3	0.1000	0.2611	0	1	0.424	93
8	1	596	1	2	1	0.1000	0.2611	0	1	0.432	92
8	1	597	1	1	3	0.1000	0.2611	0	1	0.436	91
8	1	598	1	2	1	0.1000	0.2611	1	1	0.388	96
8	1	599	0	2	3	0.1000	0.2611	1	1	0.410	9
8	1	600	1	2	2	0.1000	0.2611	0	1	0.450	90
8	1	601	1	2	2	0.1000	0.2611	0	1	0.526	82
8	1	602	0	1	3	0.1000	0.2611	0	1	0.409	9
8	1	603	1	1	3	0.1000	0.2611	0	1	0.393	96
8	1	604	1	1	2	0.1000	0.2611	1	0	0.583	0
8	1	605	1	1	3	0.1000	0.2611	0	1	0.459	89
8	1	606	0	1	3	0.1000	0.2611	1	1	0.394	10
8	1	607	1	2	3	0.1000	0.2611	0	1	0.457	89
8	1	608	0	2	2	0.1000	0.2611	1	1	0.345	10
8	1	609	1	1	3	0.1000	0.2611	0	1	0.431	92
8	1	610	1	1	2	0.1000	0.2611	1	1	0.413	94
8	1	611	0	1	3	0.1000	0.2611	0	1	0.386	10
8	1	612	1	2	2	0.1000	0.2611	1	1	0.424	93
8	1	613	0	2	2	0.1000	0.2611	0	0	0.422	0
8	1	614	1	1	3	0.1000	0.2611	1	1	0.510	84
8	1	615	1	2	1	0.1000	0.2611	0	1	0.410	94
8	1	616	1	2	1	0.1000	0.2611	0	1	0.448	90
8	1	617	0	1	3	0.1000	0.2611	1	1	0.438	9
8	1	618	1	1	1	0.1000	0.2611	1	1	0.506	84
8	1	619	1	1	1	0.1000	0.2611	0	0	0.461	0
8	1	620	0	1	1	0.1000	0.2611	0	1	0.344	10
8	1	621	0	2	1	0.1000	0.2611	0	0	0.609	0
8	1	622	0	2	2	0.1000	0.2611	1	1	0.462	9
8	1	623	1	1	3	0.1000	0.2611	1	1	0.422	93
8	1	624	0	1	3	0.1000	0.2611	1	0	0.569	0
8	1	625	0	1	2	0.1000	0.2611	0	1	0.498	9
8	1	626	1	2	1	0.1000	0.2611	0	1	0.559	79
8	1	627	0	1	3	0.1000	0.2611	0	1	0.538	8
8	1	628	0	1	3	0.1000	0.2611	1	1	1.197	5
8	1	629	1	1	3	0.1000	0.2611	1	1	0.477	87
8	1	630	1	2	2	0.1000	0.2611	1	1	0.397	95
8	1	631	0	2	2	0.1000	0.2611	0	1	0.449	9
8	1	632	0	2	1	0.1000	0.2611	0	1	0.453	9
8	1	633	1	2	1	0.1000	0.2611	1	1	0.410	94
8	1	634	1	2	2	0.1000	0.2611	1	1	0.363	99
8	1	635	1	1	2	0.1000	0.2611	0	1	0.417	93
8	1	636	0	2	1	0.1000	0.2611	1	1	0.383	10
8	1	637	0	1	2	0.1000	0.2611	1	1	0.496	9
8	1	638	0	1	3	0.1000	0.2611	0	1	0.416	9
8	1	639	1	1	3	0.1000	0.2611	0	1	0.477	87
8	1	640	1	1	3	0.1000	0.2611	1	0	0.504	0
8	1	641	1	2	2	0.1000	0.2611	0	1	0.538	81
8	1	642	1	1	3	0.1000	0.2611	1	1	0.450	90
8	1	643	0	1	3	0.1000	0.2611	1	1	0.553	8
8	1	644	0	2	1	0.1000	0.2611	1	1	0.432	9
8	1	645	0	1	3	0.1000	0.2611	0	1	0.429	9
8	1	646	1	1	1	0.1000	0.2611	1	0	0.541	0
8	1	647	0	1	1	0.1000	0.2611	1	1	0.789	6
8	1	648	0	1	2	0.1000	0.2611	1	1	0.446	9
8	1	649	0	1	3	0.1000	0.2611	0	1	0.383	10
8	1	650	0	1	3	0.1000	0.2611	0	1	0.536	8
8	1	651	0	2	1	0.1000	0.2611	1	1	0.357	10
8	1	652	0	1	1	0.1000	0.2611	0	1	0.647	7
8	1	653	1	2	2	0.1000	0.2611	0	1	0.491	86
8	1	654	1	2	2	0.1000	0.2611	0	1	0.465	88
8	1	655	1	2	2	0.1000	0.2611	1	1	0.395	95
8	1	656	0	2	3	0.1000	0.2611	1	1	0.376	10
8	1	657	0	2	2	0.1000	0.2611	0	1	0.384	10
8	1	658	0	2	2	0.1000	0.2611	0	1	0.453	9
8	1	659	0	2	2	0.1000	0.2611	1	1	0.397	10
8	1	660	1	1	1	0.1000	0.2611	0	1	0.402	95
8	1	661	0	2	1	0.1000	0.2611	1	1	0.494	9
8	1	662	1	2	1	0.1000	0.2611	1	1	0.481	87
8	1	663	0	2	2	0.1000	0.2611	0	0	0.428	0
8	1	664	1	2	1	0.1000	0.2611	0	1	0.463	89
8	1	665	0	2	2	0.1000	0.2611	1	1	0.428	9
8	1	666	1	1	1	0.1000	0.2611	0	1	0.468	88
8	1	667	1	2	1	0.1000	0.2611	1	1	0.452	90
8	1	668	1	2	2	0.1000	0.2611	1	1	0.349	100
8	1	669	0	2	2	0.1000	0.2611	1	1	0.406	9
8	1	670	0	2	3	0.1000	0.2611	0	0	0.425	0
8	1	671	0	1	3	0.1000	0.2611	0	1	0.442	9
8	1	672	1	1	1	0.1000	0.2611	1	1	0.391	96
8	1	673	0	2	2	0.1000	0.2611	0	1	0.418	9
8	1	674	0	2	2	0.1000	0.2611	1	1	0.402	9
8	1	675	0	1	3	0.1000	0.2611	1	1	0.520	8
8	1	676	1	2	3	0.1000	0.2611	1	1	0.469	88
8	1	677	0	1	1	0.1000	0.2611	0	1	0.399	10
8	1	678	0	1	1	0.1000	0.2611	0	1	0.452	9
8	1	679	1	1	3	0.1000	0.2611	0	1	0.447	90
8	1	680	0	2	2	0.1000	0.2611	0	1	0.495	9
8	1	681	1	1	3	0.1000	0.2611	0	1	0.466	88
8	1	682	1	2	3	0.1000	0.2611	1	1	0.333	100
8	1	683	1	2	2	0.1000	0.2611	0	1	0.405	94
8	1	684	1	2	2	0.1000	0.2611	1	1	0.355	100
8	1	685	0	1	1	0.1000	0.2611	1	0	0.401	0
8	1	686	0	2	2	0.1000	0.2611	1	1	0.442	9
8	1	687	0	2	3	0.1000	0.2611	0	1	0.419	9
8	1	688	1	2	2	0.1000	0.2611	0	1	0.515	83
8	1	689	0	1	1	0.1000	0.2611	1	1	0.406	9
8	1	690	1	1	3	0.1000	0.2611	0	1	0.324	100
8	1	691	0	1	1	0.1000	0.2611	1	1	0.360	10
8	1	692	1	2	2	0.1000	0.2611	1	0	0.352	0
8	1	693	1	2	2	0.1000	0.2611	1	1	0.345	100
8	1	694	1	2	1	0.1000	0.2611	0	1	0.493	86
8	1	695	1	2	3	0.1000	0.2611	0	1	0.374	98
8	1	696	1	1	1	0.1000	0.2611	0	1	0.573	78
8	1	697	1	2	1	0.1000	0.2611	1	1	0.382	97
8	1	698	1	1	3	0.1000	0.2611	1	0	0.457	0
8	1	699	1	1	1	0.1000	0.2611	1	1	0.423	93
8	1	700	0	1	1	0.1000	0.2611	1	1	0.491	9
8	1	701	0	1	2	0.1000	0.2611	0	1	0.455	9
8	1	702	1	1	1	0.1000	0.2611	1	1	0.460	89
8	1	703	1	2	2	0.1000	0.2611	0	1	0.497	85
8	1	704	0	2	2	0.1000	0.2611	0	1	0.505	8
8	1	705	0	1	1	0.1000	0.2611	0	1	0.608	7
8	1	706	1	1	3	0.1000	0.2611	0	1	0.417	93
8	1	707	1	2	2	0.1000	0.2611	0	1	0.475	88
8	1	708	0	2	1	0.1000	0.2611	0	1	0.419	9
8	1	709	0	2	1	0.1000	0.2611	0	1	0.491	9
8	1	710	0	2	3	0.1000	0.2611	1	1	0.512	8
8	1	711	1	1	3	0.1000	0.2611	1	1	0.483	87
8	1	712	0	1	3	0.1000	0.2611	1	0	0.395	0
8	1	713	1	1	2	0.1000	0.2611	0	1	0.560	79
8	1	714	0	1	3	0.1000	0.2611	1	1	0.545	8
8	1	715	0	2	2	0.1000	0.2611	1	1	0.538	8
8	1	716	1	2	1	0.1000	0.2611	1	1	0.379	97
8	1	717	0	2	1	0.1000	0.2611	0	1	0.380	10
8	1	718	0	2	1	0.1000	0.2611	1	1	0.361	10
8	1	719	1	1	3	0.1000	0.2611	1	0	0.475	0
8	1	720	1	1	1	0.1000	0.2611	0	1	0.597	75
