sub	sess	t	rew	loc	cue	co1	co2	or	resp	rt	rew_tot
3	1	1	0	2	1	0.3275	0.2965	0	1	0.557	8
3	1	2	0	1	2	0.3275	0.2965	1	1	0.688	7
3	1	3	1	1	2	0.3275	0.2965	1	0	0.629	0
3	1	4	1	2	1	0.3275	0.2965	0	1	0.778	57
3	1	5	1	1	2	0.3275	0.2965	1	1	0.677	67
3	1	6	1	2	1	0.3275	0.2965	1	1	0.608	74
3	1	7	1	2	1	0.3275	0.2965	0	0	0.618	0
3	1	8	0	2	1	0.3275	0.2965	0	1	0.677	7
3	1	9	0	2	1	0.3275	0.2965	1	1	0.694	7
3	1	10	1	2	2	0.3275	0.2965	0	1	0.633	72
3	1	11	0	1	3	0.3275	0.2965	0	1	0.681	7
3	1	12	0	2	1	0.3275	0.2965	1	1	0.618	7
3	1	13	1	2	3	0.3275	0.2965	0	1	0.563	79
3	1	14	1	1	3	0.3275	0.2965	0	1	0.679	67
3	1	15	1	1	2	0.3275	0.2965	1	1	0.660	69
3	1	16	0	1	2	0.3275	0.2965	1	1	0.737	6
3	1	17	0	2	1	0.3275	0.2965	0	1	0.555	8
3	1	18	0	2	3	0.3275	0.2965	0	1	0.615	7
3	1	19	1	1	2	0.3275	0.2965	0	1	0.675	68
3	1	20	0	1	3	0.3275	0.2965	0	1	1.141	5
3	1	21	1	2	1	0.3275	0.2965	1	1	0.628	72
3	1	22	1	1	2	0.3275	0.2965	0	1	0.649	70
3	1	23	0	2	2	0.3275	0.2965	0	1	0.563	8
3	1	24	0	2	1	0.3275	0.2965	0	1	0.578	8
3	1	25	1	1	2	0.3275	0.2965	1	1	0.562	79
3	1	26	0	1	2	0.3275	0.2965	1	1	0.680	7
3	1	27	1	1	2	0.3275	0.2965	0	1	0.653	70
3	1	28	1	1	2	0.3275	0.2965	1	1	0.559	79
3	1	29	1	1	1	0.3275	0.2965	0	1	0.599	75
3	1	30	1	2	3	0.3275	0.2965	0	1	0.612	74
3	1	31	0	2	3	0.3275	0.2965	1	1	0.603	7
3	1	32	1	1	3	0.3275	0.2965	0	1	0.612	74
3	1	33	1	1	1	0.3275	0.2965	1	1	0.632	72
3	1	34	1	1	2	0.3275	0.2965	0	1	0.605	75
3	1	35	0	1	1	0.3275	0.2965	1	1	0.686	7
3	1	36	1	2	1	0.3275	0.2965	0	1	0.501	85
3	1	37	0	1	2	0.3275	0.2965	0	0	0.610	0
3	1	38	0	2	2	0.3275	0.2965	0	1	0.660	7
3	1	39	0	2	2	0.3275	0.2965	1	1	0.805	5
3	1	40	1	2	3	0.3275	0.2965	1	1	0.550	80
3	1	41	0	1	1	0.3275	0.2965	0	1	0.816	5
3	1	42	0	1	3	0.3275	0.2965	0	1	0.548	8
3	1	43	0	2	3	0.3275	0.2965	0	1	0.598	8
3	1	44	0	1	3	0.3275	0.2965	1	1	0.569	8
3	1	45	1	1	3	0.3275	0.2965	1	1	0.577	77
3	1	46	1	2	3	0.3275	0.2965	0	1	0.519	83
3	1	47	1	2	1	0.3275	0.2965	1	0	0.577	0
3	1	48	0	2	1	0.3275	0.2965	1	1	0.517	8
3	1	49	0	1	2	0.3275	0.2965	0	1	0.537	8
3	1	50	0	2	1	0.3275	0.2965	1	1	0.597	8
3	1	51	0	2	1	0.3275	0.2965	0	1	0.653	7
3	1	52	1	1	2	0.3275	0.2965	0	1	0.672	68
3	1	53	1	2	1	0.3275	0.2965	1	1	0.500	85
3	1	54	1	2	3	0.3275	0.2965	0	1	0.534	82
3	1	55	1	2	1	0.3275	0.2965	0	1	0.630	72
3	1	56	1	1	2	0.3275	0.2965	1	0	0.125	0
3	1	57	0	1	3	0.3275	0.2965	1	1	0.630	7
3	1	58	0	2	3	0.3275	0.2965	0	0	0.678	0
3	1	59	1	2	1	0.3275	0.2965	0	1	0.473	88
3	1	60	1	1	2	0.3275	0.2965	1	0	0.497	0
3	1	61	0	1	2	0.3275	0.2965	0	0	0.638	0
3	1	62	0	1	2	0.3275	0.2965	1	1	0.699	7
3	1	63	0	1	2	0.3275	0.2965	1	1	0.539	8
3	1	64	1	1	2	0.3275	0.2965	0	1	0.551	80
3	1	65	1	2	1	0.3275	0.2965	0	0	0.546	0
3	1	66	0	2	2	0.3275	0.2965	1	1	0.660	7
3	1	67	0	2	3	0.3275	0.2965	1	0	0.864	0
3	1	68	0	1	1	0.3275	0.2965	1	1	0.642	7
3	1	69	0	1	2	0.3275	0.2965	0	1	0.493	9
3	1	70	1	1	3	0.3275	0.2965	1	1	0.625	73
3	1	71	0	2	1	0.3275	0.2965	0	1	0.500	8
3	1	72	0	2	1	0.3275	0.2965	1	0	0.665	0
3	1	73	1	2	2	0.3275	0.2965	1	1	0.549	80
3	1	74	0	1	2	0.3275	0.2965	0	1	0.727	6
3	1	75	1	2	3	0.3275	0.2965	1	1	0.769	58
3	1	76	0	1	2	0.3275	0.2965	1	1	0.843	5
3	1	77	0	2	1	0.3275	0.2965	1	1	0.851	5
3	1	78	1	2	3	0.3275	0.2965	0	1	0.572	78
3	1	79	1	1	1	0.3275	0.2965	0	1	0.659	69
3	1	80	0	2	3	0.3275	0.2965	1	1	0.757	6
3	1	81	0	2	1	0.3275	0.2965	0	1	0.605	7
3	1	82	1	2	2	0.3275	0.2965	1	1	0.529	82
3	1	83	0	1	3	0.3275	0.2965	0	1	0.626	7
3	1	84	1	1	2	0.3275	0.2965	0	1	0.634	72
3	1	85	1	2	3	0.3275	0.2965	1	1	0.651	70
3	1	86	0	1	2	0.3275	0.2965	0	1	0.529	8
3	1	87	1	1	2	0.3275	0.2965	0	1	0.693	66
3	1	88	0	2	3	0.3275	0.2965	0	0	0.705	0
3	1	89	1	1	3	0.3275	0.2965	1	1	0.740	61
3	1	90	0	1	2	0.3275	0.2965	0	1	0.836	5
3	1	91	0	1	2	0.3275	0.2965	0	1	0.603	7
3	1	92	1	2	2	0.3275	0.2965	0	1	0.473	88
3	1	93	1	1	3	0.3275	0.2965	1	1	0.654	70
3	1	94	0	2	3	0.3275	0.2965	1	0	0.657	0
3	1	95	0	1	3	0.3275	0.2965	1	1	0.694	7
3	1	96	0	1	3	0.3275	0.2965	1	1	0.587	8
3	1	97	1	2	3	0.3275	0.2965	1	1	0.696	65
3	1	98	1	2	3	0.3275	0.2965	1	1	0.527	82
3	1	99	1	2	1	0.3275	0.2965	1	1	0.591	76
3	1	100	1	2	1	0.3275	0.2965	0	1	0.552	80
3	1	101	0	2	1	0.3275	0.2965	1	1	0.783	6
3	1	102	0	2	1	0.3275	0.2965	0	1	0.747	6
3	1	103	0	1	2	0.3275	0.2965	1	1	0.662	7
3	1	104	1	2	1	0.3275	0.2965	1	1	0.721	63
3	1	105	1	2	1	0.3275	0.2965	1	1	0.695	65
3	1	106	1	2	1	0.3275	0.2965	0	1	0.550	80
3	1	107	1	1	2	0.3275	0.2965	1	0	0.983	0
3	1	108	1	2	1	0.3275	0.2965	1	1	0.638	71
3	1	109	1	1	3	0.3275	0.2965	0	1	0.791	56
3	1	110	1	1	3	0.3275	0.2965	1	1	0.739	61
3	1	111	0	2	3	0.3275	0.2965	0	1	0.614	7
3	1	112	0	2	1	0.3275	0.2965	1	0	0.531	0
3	1	113	0	1	3	0.3275	0.2965	1	1	0.806	5
3	1	114	1	1	3	0.3275	0.2965	0	1	0.586	76
3	1	115	0	2	3	0.3275	0.2965	1	1	0.596	8
3	1	116	1	1	3	0.3275	0.2965	0	1	0.549	80
3	1	117	1	1	1	0.3275	0.2965	1	1	0.844	51
3	1	118	0	1	1	0.3275	0.2965	0	1	0.918	5
3	1	119	0	1	3	0.3275	0.2965	0	1	0.857	5
3	1	120	0	1	2	0.3275	0.2965	1	1	0.724	6
3	1	121	1	1	3	0.3275	0.2965	1	1	0.844	51
3	1	122	1	1	2	0.3275	0.2965	0	1	0.581	77
3	1	123	0	2	1	0.3275	0.2965	1	1	0.515	8
3	1	124	0	2	1	0.3275	0.2965	0	1	0.482	9
3	1	125	0	2	2	0.3275	0.2965	0	1	0.495	9
3	1	126	0	2	3	0.3275	0.2965	1	1	0.570	8
3	1	127	0	1	2	0.3275	0.2965	0	1	0.767	6
3	1	128	0	2	3	0.3275	0.2965	0	1	0.580	8
3	1	129	0	2	3	0.3275	0.2965	1	1	0.537	8
3	1	130	1	1	2	0.3275	0.2965	0	1	0.734	62
3	1	131	0	1	3	0.3275	0.2965	1	1	0.628	7
3	1	132	0	1	3	0.3275	0.2965	0	1	0.926	5
3	1	133	1	2	3	0.3275	0.2965	0	1	0.834	52
3	1	134	1	1	2	0.3275	0.2965	0	1	0.727	62
3	1	135	0	1	2	0.3275	0.2965	0	0	0.806	0
3	1	136	0	2	1	0.3275	0.2965	1	1	0.865	5
3	1	137	1	1	2	0.3275	0.2965	0	1	1.597	50
3	1	138	1	1	2	0.3275	0.2965	1	1	1.390	50
3	1	139	0	1	2	0.3275	0.2965	1	0	0.892	0
3	1	140	1	2	1	0.3275	0.2965	0	1	0.833	52
3	1	141	0	1	2	0.3275	0.2965	1	0	0.988	0
3	1	142	1	1	3	0.3275	0.2965	0	0	1.257	0
3	1	143	0	1	2	0.3275	0.2965	1	1	1.224	5
3	1	144	1	2	3	0.3275	0.2965	1	0	0.604	0
3	1	145	0	2	2	0.3275	0.2965	1	1	0.655	7
3	1	146	0	2	1	0.3275	0.2965	1	1	0.786	6
3	1	147	0	2	1	0.3275	0.2965	0	1	0.603	7
3	1	148	1	1	2	0.3275	0.2965	1	1	0.876	50
3	1	149	0	2	3	0.3275	0.2965	0	1	0.741	6
3	1	150	1	2	2	0.3275	0.2965	0	1	0.595	75
3	1	151	1	2	3	0.3275	0.2965	0	1	0.514	84
3	1	152	1	2	1	0.3275	0.2965	0	1	0.504	85
3	1	153	0	1	3	0.3275	0.2965	1	1	0.813	5
3	1	154	0	2	1	0.3275	0.2965	1	0	0.601	0
3	1	155	1	1	3	0.3275	0.2965	1	1	0.700	65
3	1	156	0	1	2	0.3275	0.2965	1	1	0.694	7
3	1	157	1	2	3	0.3275	0.2965	1	1	0.536	81
3	1	158	0	2	1	0.3275	0.2965	0	1	0.674	7
3	1	159	1	1	3	0.3275	0.2965	1	1	0.719	63
3	1	160	1	2	2	0.3275	0.2965	1	1	0.727	62
3	1	161	0	1	2	0.3275	0.2965	0	1	0.771	6
3	1	162	0	1	3	0.3275	0.2965	0	1	0.672	7
3	1	163	0	2	3	0.3275	0.2965	1	1	0.466	9
3	1	164	1	1	3	0.3275	0.2965	1	1	0.638	71
3	1	165	1	2	2	0.3275	0.2965	0	1	0.727	62
3	1	166	0	1	1	0.3275	0.2965	1	1	0.575	8
3	1	167	0	1	1	0.3275	0.2965	1	1	0.765	6
3	1	168	0	1	3	0.3275	0.2965	0	1	0.555	8
3	1	169	0	2	3	0.3275	0.2965	0	0	0.654	0
3	1	170	1	2	1	0.3275	0.2965	0	1	0.612	74
3	1	171	1	2	1	0.3275	0.2965	1	1	0.799	55
3	1	172	1	2	1	0.3275	0.2965	1	1	0.624	73
3	1	173	0	1	1	0.3275	0.2965	0	1	0.748	6
3	1	174	1	2	1	0.3275	0.2965	0	1	1.074	50
3	1	175	1	2	3	0.3275	0.2965	0	1	0.625	73
3	1	176	1	1	3	0.3275	0.2965	0	1	-1.168	100
3	1	177	1	1	3	0.3275	0.2965	0	1	0.893	50
3	1	178	1	1	3	0.3275	0.2965	0	1	0.739	61
3	1	179	1	1	2	0.3275	0.2965	1	1	0.842	51
3	1	180	0	1	2	0.3275	0.2965	0	1	0.596	8
3	1	181	1	1	2	0.3275	0.2965	1	1	0.895	50
3	1	182	0	1	3	0.3275	0.2965	0	0	0.978	0
3	1	183	0	2	1	0.3275	0.2965	1	0	3.247	0
3	1	184	1	2	1	0.3275	0.2965	0	1	1.052	50
3	1	185	1	2	1	0.3275	0.2965	1	1	0.815	54
3	1	186	0	1	2	0.3275	0.2965	0	1	0.648	7
3	1	187	0	2	1	0.3275	0.2965	1	0	0.904	0
3	1	188	0	2	1	0.3275	0.2965	0	1	-0.182	10
3	1	189	0	2	1	0.3275	0.2965	0	1	1.063	5
3	1	190	0	2	1	0.3275	0.2965	1	1	0.694	7
3	1	191	1	1	3	0.3275	0.2965	1	1	0.662	69
3	1	192	0	2	2	0.3275	0.2965	0	1	0.769	6
3	1	193	0	1	2	0.3275	0.2965	0	1	0.595	8
3	1	194	0	1	3	0.3275	0.2965	1	1	0.656	7
3	1	195	0	1	2	0.3275	0.2965	1	1	0.660	7
3	1	196	0	1	2	0.3275	0.2965	1	1	0.604	7
3	1	197	1	2	3	0.3275	0.2965	1	0	0.619	0
3	1	198	0	2	1	0.3275	0.2965	0	1	0.670	7
3	1	199	1	2	1	0.3275	0.2965	0	1	0.788	56
3	1	200	1	1	2	0.3275	0.2965	1	1	0.707	64
3	1	201	1	2	1	0.3275	0.2965	0	1	0.570	78
3	1	202	1	2	3	0.3275	0.2965	1	1	0.603	75
3	1	203	1	1	2	0.3275	0.2965	1	0	0.763	0
3	1	204	0	1	3	0.3275	0.2965	1	1	0.788	6
3	1	205	1	1	3	0.3275	0.2965	0	1	0.762	59
3	1	206	1	2	1	0.3275	0.2965	1	1	0.803	55
3	1	207	0	2	3	0.3275	0.2965	0	1	0.662	7
3	1	208	0	2	3	0.3275	0.2965	1	1	0.526	8
3	1	209	0	2	1	0.3275	0.2965	0	1	0.535	8
3	1	210	0	2	1	0.3275	0.2965	0	1	0.634	7
3	1	211	1	2	1	0.3275	0.2965	1	1	0.529	82
3	1	212	0	1	3	0.3275	0.2965	0	1	0.654	7
3	1	213	1	1	2	0.3275	0.2965	1	0	0.627	0
3	1	214	1	2	1	0.3275	0.2965	0	1	1.065	50
3	1	215	1	1	2	0.3275	0.2965	0	0	0.830	0
3	1	216	1	1	2	0.3275	0.2965	1	1	0.720	63
3	1	217	1	2	1	0.3275	0.2965	1	1	1.021	50
3	1	218	0	2	2	0.3275	0.2965	1	1	0.830	5
3	1	219	1	1	1	0.3275	0.2965	0	0	0.767	0
3	1	220	1	2	1	0.3275	0.2965	1	1	0.757	59
3	1	221	0	2	3	0.3275	0.2965	0	1	0.829	5
3	1	222	0	1	1	0.3275	0.2965	0	1	0.728	6
3	1	223	1	1	1	0.3275	0.2965	0	1	0.619	73
3	1	224	1	2	2	0.3275	0.2965	1	1	0.510	84
3	1	225	1	2	3	0.3275	0.2965	0	1	0.614	74
3	1	226	0	1	3	0.3275	0.2965	1	1	0.674	7
3	1	227	0	1	2	0.3275	0.2965	0	1	0.594	8
3	1	228	0	2	3	0.3275	0.2965	1	1	0.682	7
3	1	229	1	1	2	0.3275	0.2965	0	1	0.581	77
3	1	230	0	1	2	0.3275	0.2965	1	1	1.181	5
3	1	231	1	1	2	0.3275	0.2965	0	1	0.718	63
3	1	232	0	2	1	0.3275	0.2965	1	1	0.766	6
3	1	233	1	2	1	0.3275	0.2965	1	1	0.640	71
3	1	234	1	1	1	0.3275	0.2965	1	1	0.635	71
3	1	235	1	2	3	0.3275	0.2965	1	1	0.626	72
3	1	236	0	1	2	0.3275	0.2965	0	1	0.523	8
3	1	237	1	2	3	0.3275	0.2965	0	1	0.743	61
3	1	238	0	1	2	0.3275	0.2965	1	1	0.595	8
3	1	239	1	1	1	0.3275	0.2965	1	1	0.627	72
3	1	240	1	1	2	0.3275	0.2965	0	1	0.642	71
3	1	241	1	1	2	0.3275	0.2965	0	1	0.648	70
3	1	242	1	1	2	0.3275	0.2965	0	1	0.521	83
3	1	243	1	2	1	0.3275	0.2965	0	1	0.853	50
3	1	244	1	1	2	0.3275	0.2965	0	1	0.601	75
3	1	245	1	1	2	0.3275	0.2965	1	1	0.742	61
3	1	246	0	1	2	0.3275	0.2965	0	0	0.996	0
3	1	247	0	1	2	0.3275	0.2965	1	1	0.889	5
3	1	248	0	1	2	0.3275	0.2965	1	1	0.791	6
3	1	249	0	2	2	0.3275	0.2965	0	0	0.572	0
3	1	250	0	2	1	0.3275	0.2965	0	1	0.668	7
3	1	251	0	2	3	0.3275	0.2965	1	1	0.716	6
3	1	252	0	1	3	0.3275	0.2965	1	1	0.691	7
3	1	253	0	2	3	0.3275	0.2965	0	1	0.682	7
3	1	254	1	2	1	0.3275	0.2965	1	1	0.702	65
3	1	255	1	2	1	0.3275	0.2965	0	1	0.486	86
3	1	256	1	1	3	0.3275	0.2965	0	1	0.683	67
3	1	257	1	2	1	0.3275	0.2965	1	1	0.643	71
3	1	258	1	2	2	0.3275	0.2965	0	1	0.517	83
3	1	259	0	2	3	0.3275	0.2965	0	1	0.548	8
3	1	260	0	1	3	0.3275	0.2965	0	1	0.767	6
3	1	261	1	2	1	0.3275	0.2965	1	1	0.599	75
3	1	262	1	1	3	0.3275	0.2965	1	1	0.667	68
3	1	263	1	1	3	0.3275	0.2965	0	1	0.891	50
3	1	264	0	1	3	0.3275	0.2965	1	1	1.211	5
3	1	265	0	2	3	0.3275	0.2965	0	1	0.811	5
3	1	266	0	2	2	0.3275	0.2965	0	1	0.528	8
3	1	267	0	2	2	0.3275	0.2965	1	1	0.548	8
3	1	268	1	2	1	0.3275	0.2965	0	1	0.588	76
3	1	269	0	2	1	0.3275	0.2965	1	1	0.739	6
3	1	270	0	2	3	0.3275	0.2965	1	1	0.589	8
3	1	271	1	1	3	0.3275	0.2965	1	1	0.771	58
3	1	272	0	2	1	0.3275	0.2965	0	1	0.518	8
3	1	273	0	1	3	0.3275	0.2965	1	1	0.632	7
3	1	274	0	1	1	0.3275	0.2965	1	1	0.912	5
3	1	275	0	2	1	0.3275	0.2965	1	1	0.614	7
3	1	276	0	1	2	0.3275	0.2965	0	1	0.516	8
3	1	277	1	1	2	0.3275	0.2965	1	1	0.674	68
3	1	278	0	2	2	0.3275	0.2965	1	1	0.544	8
3	1	279	1	1	3	0.3275	0.2965	0	1	0.550	80
3	1	280	1	1	2	0.3275	0.2965	1	1	0.645	70
3	1	281	0	2	1	0.3275	0.2965	1	1	0.509	8
3	1	282	1	2	1	0.3275	0.2965	1	1	0.527	82
3	1	283	0	2	3	0.3275	0.2965	1	1	0.616	7
3	1	284	0	1	3	0.3275	0.2965	0	1	0.658	7
3	1	285	0	1	3	0.3275	0.2965	1	1	0.506	8
3	1	286	0	1	2	0.3275	0.2965	0	1	0.746	6
3	1	287	1	1	3	0.3275	0.2965	1	1	0.631	72
3	1	288	1	1	1	0.3275	0.2965	1	1	0.623	73
3	1	289	1	2	3	0.3275	0.2965	1	1	0.732	62
3	1	290	1	2	2	0.3275	0.2965	1	1	0.494	86
3	1	291	0	2	3	0.3275	0.2965	0	0	1.144	0
3	1	292	0	2	1	0.3275	0.2965	0	1	0.574	8
3	1	293	1	1	2	0.3275	0.2965	1	1	0.744	61
3	1	294	0	1	2	0.3275	0.2965	1	1	0.680	7
3	1	295	0	2	1	0.3275	0.2965	0	1	0.598	8
3	1	296	0	2	1	0.3275	0.2965	0	1	0.544	8
3	1	297	1	2	1	0.3275	0.2965	0	1	0.555	79
3	1	298	0	1	2	0.3275	0.2965	1	0	0.836	0
3	1	299	1	2	1	0.3275	0.2965	0	0	0.746	0
3	1	300	1	2	2	0.3275	0.2965	1	1	0.787	56
3	1	301	0	1	2	0.3275	0.2965	0	0	0.817	0
3	1	302	1	2	2	0.3275	0.2965	0	1	0.764	59
3	1	303	1	2	1	0.3275	0.2965	0	1	0.630	72
3	1	304	1	1	3	0.3275	0.2965	1	1	0.669	68
3	1	305	0	2	1	0.3275	0.2965	1	1	0.697	7
3	1	306	0	1	1	0.3275	0.2965	0	1	0.661	7
3	1	307	1	1	3	0.3275	0.2965	0	0	0.950	0
3	1	308	0	1	2	0.3275	0.2965	0	1	0.872	5
3	1	309	1	2	1	0.3275	0.2965	0	1	0.723	63
3	1	310	1	1	2	0.3275	0.2965	0	1	0.528	82
3	1	311	0	1	2	0.3275	0.2965	1	1	0.504	8
3	1	312	0	1	2	0.3275	0.2965	0	1	0.565	8
3	1	313	0	1	3	0.3275	0.2965	1	1	0.885	5
3	1	314	0	2	1	0.3275	0.2965	1	0	0.610	0
3	1	315	0	2	1	0.3275	0.2965	1	1	0.540	8
3	1	316	0	2	3	0.3275	0.2965	1	1	0.738	6
3	1	317	0	1	1	0.3275	0.2965	1	1	0.927	5
3	1	318	1	2	3	0.3275	0.2965	1	1	0.454	90
3	1	319	1	2	1	0.3275	0.2965	1	1	0.540	81
3	1	320	1	1	2	0.3275	0.2965	0	1	0.769	58
3	1	321	1	2	3	0.3275	0.2965	0	1	0.783	57
3	1	322	0	2	1	0.3275	0.2965	1	1	0.518	8
3	1	323	0	2	1	0.3275	0.2965	0	1	0.623	7
3	1	324	0	1	3	0.3275	0.2965	0	1	0.645	7
3	1	325	1	2	1	0.3275	0.2965	1	1	0.652	70
3	1	326	0	1	2	0.3275	0.2965	1	1	0.844	5
3	1	327	1	2	1	0.3275	0.2965	1	1	0.532	82
3	1	328	1	2	3	0.3275	0.2965	0	1	0.518	83
3	1	329	1	1	2	0.3275	0.2965	0	1	0.568	78
3	1	330	1	1	1	0.3275	0.2965	0	1	0.762	59
3	1	331	1	2	3	0.3275	0.2965	0	1	0.590	76
3	1	332	1	2	3	0.3275	0.2965	1	1	0.537	81
3	1	333	1	2	3	0.3275	0.2965	0	1	0.594	76
3	1	334	1	2	3	0.3275	0.2965	1	1	0.543	81
3	1	335	1	2	3	0.3275	0.2965	1	1	0.571	78
3	1	336	0	1	1	0.3275	0.2965	0	1	0.611	7
3	1	337	0	2	1	0.3275	0.2965	0	1	0.555	8
3	1	338	1	1	3	0.3275	0.2965	0	1	0.634	72
3	1	339	1	1	1	0.3275	0.2965	0	1	0.723	63
3	1	340	1	1	2	0.3275	0.2965	0	1	0.549	80
3	1	341	0	1	2	0.3275	0.2965	0	1	0.624	7
3	1	342	0	1	2	0.3275	0.2965	1	0	0.515	0
3	1	343	0	1	2	0.3275	0.2965	0	1	0.551	8
3	1	344	1	1	2	0.3275	0.2965	0	0	0.994	0
3	1	345	1	1	1	0.3275	0.2965	1	1	0.694	66
3	1	346	1	1	2	0.3275	0.2965	1	1	0.643	71
3	1	347	0	2	3	0.3275	0.2965	1	1	0.597	8
3	1	348	0	1	2	0.3275	0.2965	1	1	0.613	7
3	1	349	0	1	3	0.3275	0.2965	0	1	0.585	8
3	1	350	0	2	3	0.3275	0.2965	0	1	0.566	8
3	1	351	1	1	2	0.3275	0.2965	1	1	0.797	55
3	1	352	0	2	1	0.3275	0.2965	1	1	0.792	6
3	1	353	1	2	1	0.3275	0.2965	0	1	0.601	75
3	1	354	1	1	2	0.3275	0.2965	1	1	0.738	61
3	1	355	0	2	1	0.3275	0.2965	0	1	0.611	7
3	1	356	1	1	3	0.3275	0.2965	1	1	0.615	74
3	1	357	1	2	3	0.3275	0.2965	0	1	0.535	82
3	1	358	1	1	2	0.3275	0.2965	1	1	0.577	77
3	1	359	0	1	3	0.3275	0.2965	0	1	0.705	6
3	1	360	1	2	1	0.3275	0.2965	1	1	0.544	81
3	1	361	1	1	3	0.3275	0.2965	1	1	0.979	50
3	1	362	1	2	2	0.3275	0.2965	1	1	0.511	84
3	1	363	0	1	2	0.3275	0.2965	0	1	0.471	9
3	1	364	1	2	1	0.3275	0.2965	1	1	0.513	84
3	1	365	1	2	1	0.3275	0.2965	0	1	0.585	77
3	1	366	0	2	3	0.3275	0.2965	0	1	0.572	8
3	1	367	1	2	3	0.3275	0.2965	1	1	0.610	74
3	1	368	1	1	3	0.3275	0.2965	1	1	0.677	67
3	1	369	0	1	1	0.3275	0.2965	0	1	0.792	6
3	1	370	0	1	2	0.3275	0.2965	1	1	0.593	8
3	1	371	1	1	2	0.3275	0.2965	1	1	0.550	80
3	1	372	0	2	1	0.3275	0.2965	0	1	0.673	7
3	1	373	0	2	2	0.3275	0.2965	1	1	0.480	9
3	1	374	1	2	1	0.3275	0.2965	1	1	0.499	85
3	1	375	0	1	2	0.3275	0.2965	0	1	0.489	9
3	1	376	1	2	3	0.3275	0.2965	0	1	0.544	81
3	1	377	1	2	1	0.3275	0.2965	1	1	0.518	83
3	1	378	0	2	1	0.3275	0.2965	1	1	0.517	8
3	1	379	1	2	1	0.3275	0.2965	1	1	0.516	83
3	1	380	1	1	2	0.3275	0.2965	0	1	0.444	91
3	1	381	0	1	2	0.3275	0.2965	1	1	0.620	7
3	1	382	1	1	1	0.3275	0.2965	1	0	0.624	0
3	1	383	1	1	2	0.3275	0.2965	0	1	0.553	80
3	1	384	0	2	1	0.3275	0.2965	0	1	0.655	7
3	1	385	1	2	2	0.3275	0.2965	0	1	0.551	80
3	1	386	0	1	2	0.3275	0.2965	1	1	0.610	7
3	1	387	1	2	2	0.3275	0.2965	0	1	0.575	77
3	1	388	1	1	2	0.3275	0.2965	0	1	0.577	77
3	1	389	1	2	1	0.3275	0.2965	0	1	0.549	80
3	1	390	0	2	3	0.3275	0.2965	1	1	0.778	6
3	1	391	1	2	1	0.3275	0.2965	0	0	0.574	0
3	1	392	0	2	1	0.3275	0.2965	0	1	0.649	7
3	1	393	0	1	3	0.3275	0.2965	1	1	0.720	6
3	1	394	1	1	3	0.3275	0.2965	1	1	0.632	72
3	1	395	1	2	3	0.3275	0.2965	0	1	1.150	50
3	1	396	1	2	3	0.3275	0.2965	1	1	0.554	80
3	1	397	1	1	3	0.3275	0.2965	0	1	0.592	76
3	1	398	1	2	1	0.3275	0.2965	1	1	0.551	80
3	1	399	0	2	3	0.3275	0.2965	1	1	0.534	8
3	1	400	0	1	2	0.3275	0.2965	1	1	0.685	7
3	1	401	0	1	2	0.3275	0.2965	1	1	0.900	5
3	1	402	0	2	1	0.3275	0.2965	1	1	0.580	8
3	1	403	1	1	2	0.3275	0.2965	0	1	0.573	78
3	1	404	0	2	3	0.3275	0.2965	1	1	0.536	8
3	1	405	1	1	2	0.3275	0.2965	1	1	0.640	71
3	1	406	0	2	2	0.3275	0.2965	1	1	0.495	9
3	1	407	0	1	3	0.3275	0.2965	0	1	0.657	7
3	1	408	1	2	3	0.3275	0.2965	0	1	0.493	86
3	1	409	0	2	1	0.3275	0.2965	0	1	0.521	8
3	1	410	0	2	3	0.3275	0.2965	0	1	0.473	9
3	1	411	0	2	1	0.3275	0.2965	1	1	0.490	9
3	1	412	0	1	2	0.3275	0.2965	1	1	0.649	7
3	1	413	0	1	2	0.3275	0.2965	0	1	0.552	8
3	1	414	0	2	1	0.3275	0.2965	0	1	0.677	7
3	1	415	1	2	1	0.3275	0.2965	0	1	0.474	88
3	1	416	0	2	1	0.3275	0.2965	1	1	0.534	8
3	1	417	0	1	3	0.3275	0.2965	1	1	0.741	6
3	1	418	0	1	3	0.3275	0.2965	0	1	0.669	7
3	1	419	1	1	2	0.3275	0.2965	1	1	0.672	68
3	1	420	0	1	3	0.3275	0.2965	1	1	0.624	7
3	1	421	1	2	3	0.3275	0.2965	1	1	0.529	82
3	1	422	0	2	1	0.3275	0.2965	0	1	0.544	8
3	1	423	0	1	3	0.3275	0.2965	0	1	0.585	8
3	1	424	1	1	2	0.3275	0.2965	1	1	0.693	66
3	1	425	0	1	2	0.3275	0.2965	0	1	0.890	5
3	1	426	1	1	3	0.3275	0.2965	0	1	0.575	77
3	1	427	0	2	2	0.3275	0.2965	0	1	0.873	5
3	1	428	1	1	3	0.3275	0.2965	0	1	0.623	73
3	1	429	0	1	2	0.3275	0.2965	0	1	0.793	6
3	1	430	1	1	2	0.3275	0.2965	1	0	0.500	0
3	1	431	0	1	1	0.3275	0.2965	0	1	0.544	8
3	1	432	0	2	3	0.3275	0.2965	0	1	0.575	8
3	1	433	1	1	1	0.3275	0.2965	0	1	0.606	74
3	1	434	1	2	1	0.3275	0.2965	0	1	0.702	65
3	1	435	0	2	3	0.3275	0.2965	0	1	0.478	9
3	1	436	1	1	3	0.3275	0.2965	0	1	0.650	70
3	1	437	1	1	2	0.3275	0.2965	0	1	0.560	79
3	1	438	0	1	1	0.3275	0.2965	1	1	0.612	7
3	1	439	0	2	1	0.3275	0.2965	0	1	0.527	8
3	1	440	0	1	2	0.3275	0.2965	1	1	0.727	6
3	1	441	1	1	2	0.3275	0.2965	1	1	0.819	53
3	1	442	0	2	3	0.3275	0.2965	0	1	0.548	8
3	1	443	1	2	1	0.3275	0.2965	0	0	0.653	0
3	1	444	0	2	1	0.3275	0.2965	0	1	0.658	7
3	1	445	0	2	1	0.3275	0.2965	1	1	0.586	8
3	1	446	1	2	3	0.3275	0.2965	0	1	0.473	88
3	1	447	0	1	2	0.3275	0.2965	1	0	0.503	0
3	1	448	0	1	3	0.3275	0.2965	0	1	0.586	8
3	1	449	1	2	1	0.3275	0.2965	1	1	0.487	86
3	1	450	0	2	1	0.3275	0.2965	1	1	0.521	8
3	1	451	0	1	2	0.3275	0.2965	0	1	0.580	8
3	1	452	1	1	2	0.3275	0.2965	1	0	-1.917	0
3	1	453	1	2	1	0.3275	0.2965	0	1	0.812	54
3	1	454	1	1	2	0.3275	0.2965	0	1	0.596	75
3	1	455	1	1	1	0.3275	0.2965	1	0	0.524	0
3	1	456	1	2	1	0.3275	0.2965	1	1	0.502	85
3	1	457	0	1	2	0.3275	0.2965	0	1	0.469	9
3	1	458	1	1	2	0.3275	0.2965	0	1	0.473	88
3	1	459	1	1	2	0.3275	0.2965	1	0	0.447	0
3	1	460	1	1	1	0.3275	0.2965	0	1	0.480	87
3	1	461	1	1	3	0.3275	0.2965	0	1	0.631	72
3	1	462	0	1	2	0.3275	0.2965	0	1	0.492	9
3	1	463	0	1	3	0.3275	0.2965	1	0	0.526	0
3	1	464	0	1	1	0.3275	0.2965	1	1	0.633	7
3	1	465	0	1	3	0.3275	0.2965	0	1	0.500	8
3	1	466	0	2	3	0.3275	0.2965	1	1	0.563	8
3	1	467	0	2	1	0.3275	0.2965	1	1	0.581	8
3	1	468	0	1	3	0.3275	0.2965	1	1	0.630	7
3	1	469	1	2	2	0.3275	0.2965	1	1	0.489	86
3	1	470	1	1	3	0.3275	0.2965	1	1	0.599	75
3	1	471	1	2	1	0.3275	0.2965	1	1	0.501	85
3	1	472	1	1	2	0.3275	0.2965	0	1	0.714	64
3	1	473	1	2	3	0.3275	0.2965	1	1	0.547	80
3	1	474	1	2	3	0.3275	0.2965	0	1	0.631	72
3	1	475	1	2	3	0.3275	0.2965	1	1	0.502	85
3	1	476	0	2	3	0.3275	0.2965	1	0	0.807	0
3	1	477	1	1	3	0.3275	0.2965	1	1	0.559	79
3	1	478	0	2	2	0.3275	0.2965	0	1	1.274	5
3	1	479	0	2	1	0.3275	0.2965	1	1	0.640	7
3	1	480	1	2	1	0.3275	0.2965	0	1	0.508	84
3	1	481	1	2	1	0.3275	0.2965	1	1	0.589	76
3	1	482	1	2	2	0.3275	0.2965	1	1	0.567	78
3	1	483	1	1	2	0.3275	0.2965	1	1	0.720	63
3	1	484	1	1	2	0.3275	0.2965	1	1	1.219	50
3	1	485	0	1	3	0.3275	0.2965	0	1	0.527	8
3	1	486	0	1	2	0.3275	0.2965	0	1	0.554	8
3	1	487	1	2	3	0.3275	0.2965	0	1	0.481	87
3	1	488	1	2	3	0.3275	0.2965	1	1	0.491	86
3	1	489	0	2	3	0.3275	0.2965	1	1	0.551	8
3	1	490	0	1	2	0.3275	0.2965	1	1	0.698	7
3	1	491	0	2	2	0.3275	0.2965	0	1	0.570	8
3	1	492	1	2	3	0.3275	0.2965	0	1	0.541	81
3	1	493	1	2	3	0.3275	0.2965	1	1	0.515	84
3	1	494	1	2	1	0.3275	0.2965	1	1	0.529	82
3	1	495	0	2	1	0.3275	0.2965	0	1	0.513	8
3	1	496	1	2	3	0.3275	0.2965	0	1	0.531	82
3	1	497	0	2	2	0.3275	0.2965	1	1	0.465	9
3	1	498	1	1	2	0.3275	0.2965	1	1	0.762	59
3	1	499	0	1	3	0.3275	0.2965	0	1	0.553	8
3	1	500	0	1	3	0.3275	0.2965	1	1	0.701	6
3	1	501	0	1	3	0.3275	0.2965	1	1	0.699	7
3	1	502	0	1	3	0.3275	0.2965	0	0	0.786	0
3	1	503	0	1	3	0.3275	0.2965	1	0	0.725	0
3	1	504	1	1	3	0.3275	0.2965	0	1	0.603	75
3	1	505	1	2	1	0.3275	0.2965	1	1	0.536	81
3	1	506	0	1	3	0.3275	0.2965	0	1	0.598	8
3	1	507	0	1	3	0.3275	0.2965	1	0	0.777	0
3	1	508	1	1	2	0.3275	0.2965	1	1	0.458	89
3	1	509	1	1	3	0.3275	0.2965	0	1	0.632	72
3	1	510	1	2	3	0.3275	0.2965	0	1	0.528	82
3	1	511	1	1	3	0.3275	0.2965	1	1	0.517	83
3	1	512	1	2	1	0.3275	0.2965	1	1	0.449	90
3	1	513	1	1	3	0.3275	0.2965	0	0	0.766	0
3	1	514	0	2	1	0.3275	0.2965	1	0	0.697	0
3	1	515	1	1	2	0.3275	0.2965	0	1	0.525	82
3	1	516	0	1	2	0.3275	0.2965	1	1	0.718	6
3	1	517	1	1	3	0.3275	0.2965	1	1	0.597	75
3	1	518	0	2	3	0.3275	0.2965	1	1	0.518	8
3	1	519	1	2	3	0.3275	0.2965	1	1	0.743	61
3	1	520	0	2	3	0.3275	0.2965	1	1	0.529	8
3	1	521	1	2	2	0.3275	0.2965	0	1	0.606	74
3	1	522	0	2	3	0.3275	0.2965	1	1	0.837	5
3	1	523	1	2	3	0.3275	0.2965	0	1	0.535	82
3	1	524	0	1	2	0.3275	0.2965	0	1	0.559	8
3	1	525	1	2	1	0.3275	0.2965	1	1	0.460	89
3	1	526	1	1	2	0.3275	0.2965	1	1	0.785	57
3	1	527	0	1	2	0.3275	0.2965	0	1	0.555	8
3	1	528	0	2	2	0.3275	0.2965	0	1	0.504	8
3	1	529	0	2	1	0.3275	0.2965	0	1	0.552	8
3	1	530	1	1	3	0.3275	0.2965	0	1	0.560	79
3	1	531	0	2	1	0.3275	0.2965	1	1	0.542	8
3	1	532	0	2	1	0.3275	0.2965	0	1	0.510	8
3	1	533	0	1	2	0.3275	0.2965	0	1	0.611	7
3	1	534	1	2	1	0.3275	0.2965	0	1	0.586	76
3	1	535	1	1	1	0.3275	0.2965	1	1	0.597	75
3	1	536	1	2	1	0.3275	0.2965	1	1	0.562	79
3	1	537	1	2	1	0.3275	0.2965	0	1	0.580	77
3	1	538	0	1	1	0.3275	0.2965	1	1	0.684	7
3	1	539	1	1	1	0.3275	0.2965	0	1	0.617	73
3	1	540	1	1	2	0.3275	0.2965	0	0	0.613	0
3	1	541	0	1	2	0.3275	0.2965	1	1	0.758	6
3	1	542	0	1	2	0.3275	0.2965	0	1	0.471	9
3	1	543	0	2	1	0.3275	0.2965	0	0	0.533	0
3	1	544	1	2	1	0.3275	0.2965	1	1	0.480	87
3	1	545	1	1	1	0.3275	0.2965	1	1	0.598	75
3	1	546	0	1	1	0.3275	0.2965	0	1	0.559	8
3	1	547	0	2	1	0.3275	0.2965	0	1	0.581	8
3	1	548	0	2	3	0.3275	0.2965	0	1	0.711	6
3	1	549	0	2	1	0.3275	0.2965	0	1	0.575	8
3	1	550	1	1	2	0.3275	0.2965	0	1	0.822	53
3	1	551	0	1	3	0.3275	0.2965	0	1	0.658	7
3	1	552	0	2	1	0.3275	0.2965	0	1	0.621	7
3	1	553	0	1	1	0.3275	0.2965	1	1	0.625	7
3	1	554	1	1	1	0.3275	0.2965	0	1	0.621	73
3	1	555	0	1	2	0.3275	0.2965	0	1	0.619	7
3	1	556	1	2	2	0.3275	0.2965	1	1	0.534	82
3	1	557	1	1	2	0.3275	0.2965	0	1	0.534	82
3	1	558	1	2	3	0.3275	0.2965	1	1	0.676	67
3	1	559	0	2	3	0.3275	0.2965	0	1	0.568	8
3	1	560	0	1	3	0.3275	0.2965	1	1	0.529	8
3	1	561	0	1	2	0.3275	0.2965	0	1	0.526	8
3	1	562	1	1	2	0.3275	0.2965	0	1	0.555	79
3	1	563	0	2	3	0.3275	0.2965	1	1	0.499	9
3	1	564	1	1	3	0.3275	0.2965	1	1	0.604	75
3	1	565	0	2	1	0.3275	0.2965	1	1	0.410	9
3	1	566	1	1	3	0.3275	0.2965	1	1	0.596	75
3	1	567	0	1	2	0.3275	0.2965	0	1	0.548	8
3	1	568	0	2	3	0.3275	0.2965	0	1	0.529	8
3	1	569	0	2	2	0.3275	0.2965	1	1	0.484	9
3	1	570	0	2	1	0.3275	0.2965	1	1	0.497	9
3	1	571	1	2	1	0.3275	0.2965	0	1	0.576	77
3	1	572	1	2	1	0.3275	0.2965	1	1	0.484	87
3	1	573	0	1	2	0.3275	0.2965	1	1	0.644	7
3	1	574	0	1	2	0.3275	0.2965	1	1	0.658	7
3	1	575	0	1	2	0.3275	0.2965	1	0	0.845	0
3	1	576	1	1	2	0.3275	0.2965	1	1	0.456	89
3	1	577	1	1	2	0.3275	0.2965	1	1	0.575	78
3	1	578	0	2	3	0.3275	0.2965	0	1	0.838	5
3	1	579	1	1	2	0.3275	0.2965	0	1	0.673	68
3	1	580	1	2	3	0.3275	0.2965	1	1	0.546	80
3	1	581	1	1	2	0.3275	0.2965	0	1	0.551	80
3	1	582	0	1	1	0.3275	0.2965	0	1	0.523	8
3	1	583	0	2	1	0.3275	0.2965	1	1	0.502	8
3	1	584	1	1	2	0.3275	0.2965	0	1	0.631	72
3	1	585	1	2	1	0.3275	0.2965	0	1	0.622	73
3	1	586	0	2	1	0.3275	0.2965	0	1	0.530	8
3	1	587	1	2	1	0.3275	0.2965	0	1	0.491	86
3	1	588	1	2	1	0.3275	0.2965	0	1	0.536	81
3	1	589	1	2	1	0.3275	0.2965	0	1	0.815	54
3	1	590	0	2	3	0.3275	0.2965	0	1	0.654	7
3	1	591	0	2	1	0.3275	0.2965	1	1	0.507	8
3	1	592	0	1	2	0.3275	0.2965	1	0	0.556	0
3	1	593	1	1	2	0.3275	0.2965	1	1	0.837	51
3	1	594	1	1	3	0.3275	0.2965	1	1	0.521	83
3	1	595	1	1	3	0.3275	0.2965	0	0	1.159	0
3	1	596	0	2	1	0.3275	0.2965	1	1	0.499	9
3	1	597	0	2	1	0.3275	0.2965	1	1	0.554	8
3	1	598	1	2	2	0.3275	0.2965	0	1	1.202	50
3	1	599	1	2	1	0.3275	0.2965	0	1	0.513	84
3	1	600	0	1	2	0.3275	0.2965	1	1	0.577	8
3	1	601	1	1	1	0.3275	0.2965	0	0	0.596	0
3	1	602	0	1	2	0.3275	0.2965	1	1	0.597	8
3	1	603	1	2	1	0.3275	0.2965	1	1	0.667	68
3	1	604	1	2	1	0.3275	0.2965	0	1	0.629	72
3	1	605	0	1	3	0.3275	0.2965	0	0	0.680	0
3	1	606	0	2	1	0.3275	0.2965	1	1	0.529	8
3	1	607	1	2	2	0.3275	0.2965	0	1	0.750	60
3	1	608	1	2	3	0.3275	0.2965	1	1	0.527	82
3	1	609	0	1	1	0.3275	0.2965	1	1	0.621	7
3	1	610	1	2	3	0.3275	0.2965	0	1	0.514	84
3	1	611	0	2	1	0.3275	0.2965	0	1	0.522	8
3	1	612	0	1	2	0.3275	0.2965	0	0	0.568	0
3	1	613	1	1	3	0.3275	0.2965	0	1	0.534	82
3	1	614	1	2	3	0.3275	0.2965	1	1	0.557	79
3	1	615	0	2	2	0.3275	0.2965	0	1	0.553	8
3	1	616	0	2	1	0.3275	0.2965	1	1	0.764	6
3	1	617	0	1	3	0.3275	0.2965	1	1	0.976	5
3	1	618	0	1	3	0.3275	0.2965	1	1	0.649	7
3	1	619	0	2	1	0.3275	0.2965	0	1	0.570	8
3	1	620	1	2	1	0.3275	0.2965	1	1	0.579	77
3	1	621	1	2	1	0.3275	0.2965	0	1	0.670	68
3	1	622	1	1	3	0.3275	0.2965	0	1	0.624	73
3	1	623	0	1	2	0.3275	0.2965	0	1	0.501	8
3	1	624	0	1	2	0.3275	0.2965	0	1	0.479	9
3	1	625	1	1	2	0.3275	0.2965	0	1	0.861	50
3	1	626	0	2	1	0.3275	0.2965	1	1	0.482	9
3	1	627	0	2	1	0.3275	0.2965	1	1	0.547	8
3	1	628	1	2	3	0.3275	0.2965	1	1	0.883	50
3	1	629	1	2	2	0.3275	0.2965	1	1	0.563	79
3	1	630	0	2	3	0.3275	0.2965	1	1	0.579	8
3	1	631	1	2	2	0.3275	0.2965	1	1	0.467	88
3	1	632	1	2	3	0.3275	0.2965	0	1	0.672	68
3	1	633	1	1	2	0.3275	0.2965	1	1	0.644	71
3	1	634	1	1	2	0.3275	0.2965	0	0	0.714	0
3	1	635	0	2	1	0.3275	0.2965	0	1	0.745	6
3	1	636	0	2	3	0.3275	0.2965	0	1	0.567	8
3	1	637	0	1	3	0.3275	0.2965	0	1	0.671	7
3	1	638	1	1	2	0.3275	0.2965	0	1	0.467	88
3	1	639	1	2	1	0.3275	0.2965	0	1	0.554	80
3	1	640	0	2	3	0.3275	0.2965	1	1	0.582	8
3	1	641	0	1	2	0.3275	0.2965	0	1	0.640	7
3	1	642	0	1	2	0.3275	0.2965	0	1	0.533	8
3	1	643	1	1	3	0.3275	0.2965	1	1	0.557	79
3	1	644	0	1	1	0.3275	0.2965	0	0	1.240	0
3	1	645	0	1	3	0.3275	0.2965	0	1	0.562	8
3	1	646	0	1	2	0.3275	0.2965	0	1	0.524	8
3	1	647	1	2	3	0.3275	0.2965	0	1	0.624	73
3	1	648	0	2	3	0.3275	0.2965	1	1	0.547	8
3	1	649	0	1	3	0.3275	0.2965	0	1	0.528	8
3	1	650	1	1	2	0.3275	0.2965	0	1	0.744	61
3	1	651	1	2	1	0.3275	0.2965	0	1	0.649	70
3	1	652	1	2	1	0.3275	0.2965	1	1	0.631	72
3	1	653	1	2	1	0.3275	0.2965	0	1	0.532	82
3	1	654	1	2	3	0.3275	0.2965	1	1	0.565	78
3	1	655	0	1	3	0.3275	0.2965	1	1	0.679	7
3	1	656	1	2	3	0.3275	0.2965	0	1	0.511	84
3	1	657	0	2	1	0.3275	0.2965	0	1	0.603	7
3	1	658	1	2	1	0.3275	0.2965	0	1	0.470	88
3	1	659	0	2	1	0.3275	0.2965	1	0	1.013	0
3	1	660	0	1	2	0.3275	0.2965	1	1	0.611	7
3	1	661	1	1	2	0.3275	0.2965	0	1	1.101	50
3	1	662	1	2	3	0.3275	0.2965	0	1	0.526	82
3	1	663	1	1	2	0.3275	0.2965	0	1	0.544	81
3	1	664	1	2	1	0.3275	0.2965	0	1	0.607	74
3	1	665	0	2	1	0.3275	0.2965	1	1	0.462	9
3	1	666	0	2	3	0.3275	0.2965	0	1	0.450	9
3	1	667	1	1	2	0.3275	0.2965	1	1	0.600	75
3	1	668	0	1	3	0.3275	0.2965	0	1	0.474	9
3	1	669	0	1	2	0.3275	0.2965	1	1	0.860	5
3	1	670	0	2	2	0.3275	0.2965	0	1	0.515	8
3	1	671	1	1	3	0.3275	0.2965	0	1	0.605	75
3	1	672	0	1	2	0.3275	0.2965	1	0	0.713	0
3	1	673	0	2	2	0.3275	0.2965	1	1	0.497	9
3	1	674	0	1	1	0.3275	0.2965	0	1	0.647	7
3	1	675	0	2	3	0.3275	0.2965	0	1	0.599	8
3	1	676	0	2	1	0.3275	0.2965	0	1	0.480	9
3	1	677	1	2	1	0.3275	0.2965	0	1	0.614	74
3	1	678	0	2	3	0.3275	0.2965	1	1	0.517	8
3	1	679	0	2	3	0.3275	0.2965	0	1	0.718	6
3	1	680	1	2	1	0.3275	0.2965	1	1	0.481	87
3	1	681	0	1	2	0.3275	0.2965	0	1	0.726	6
3	1	682	1	2	3	0.3275	0.2965	1	1	0.537	81
3	1	683	0	2	1	0.3275	0.2965	0	1	0.573	8
3	1	684	1	1	1	0.3275	0.2965	0	1	0.464	89
3	1	685	0	2	1	0.3275	0.2965	1	1	0.558	8
3	1	686	1	1	3	0.3275	0.2965	1	1	0.664	69
3	1	687	1	1	2	0.3275	0.2965	0	1	1.165	50
3	1	688	0	2	1	0.3275	0.2965	1	1	0.558	8
3	1	689	1	1	1	0.3275	0.2965	1	1	0.701	65
3	1	690	1	1	3	0.3275	0.2965	0	1	0.913	50
3	1	691	1	1	3	0.3275	0.2965	1	1	0.744	61
3	1	692	1	2	1	0.3275	0.2965	1	1	0.561	79
3	1	693	1	2	1	0.3275	0.2965	1	1	0.550	80
3	1	694	0	1	2	0.3275	0.2965	1	1	0.629	7
3	1	695	0	1	2	0.3275	0.2965	1	1	0.636	7
3	1	696	0	2	2	0.3275	0.2965	1	1	0.617	7
3	1	697	1	1	2	0.3275	0.2965	1	1	0.657	69
3	1	698	1	1	3	0.3275	0.2965	1	1	0.630	72
3	1	699	0	2	1	0.3275	0.2965	0	1	0.601	7
3	1	700	0	2	3	0.3275	0.2965	0	1	0.731	6
3	1	701	1	1	2	0.3275	0.2965	1	1	0.843	51
3	1	702	0	1	2	0.3275	0.2965	1	0	0.780	0
3	1	703	0	2	3	0.3275	0.2965	1	1	0.526	8
3	1	704	1	1	2	0.3275	0.2965	1	0	0.825	0
3	1	705	0	1	3	0.3275	0.2965	1	1	0.662	7
3	1	706	1	1	1	0.3275	0.2965	1	1	0.738	61
3	1	707	0	1	2	0.3275	0.2965	0	1	0.547	8
3	1	708	0	1	1	0.3275	0.2965	1	1	0.655	7
3	1	709	1	2	2	0.3275	0.2965	0	1	0.579	77
3	1	710	0	1	3	0.3275	0.2965	1	1	0.559	8
3	1	711	1	1	2	0.3275	0.2965	1	1	0.578	77
3	1	712	0	1	2	0.3275	0.2965	1	1	0.692	7
3	1	713	1	1	3	0.3275	0.2965	1	1	0.664	69
3	1	714	1	1	2	0.3275	0.2965	1	1	0.548	80
3	1	715	1	1	2	0.3275	0.2965	1	1	0.760	59
3	1	716	0	2	1	0.3275	0.2965	0	1	0.539	8
3	1	717	1	2	1	0.3275	0.2965	1	1	0.589	76
3	1	718	1	1	3	0.3275	0.2965	0	1	0.625	73
3	1	719	1	2	1	0.3275	0.2965	1	1	0.751	60
3	1	720	1	1	2	0.3275	0.2965	0	1	0.546	80
