sub	sess	t	loc	co1	co2	or	resp	rt
3	1	1	2	1.0000	1.0000	0	0	1.760
3	1	2	2	1.0000	1.0000	0	0	1.245
3	1	3	1	1.0000	1.0000	0	1	1.366
3	1	4	1	1.0000	1.0000	1	1	1.514
3	1	5	2	1.0000	1.0000	0	1	-0.880
3	1	6	1	1.0000	1.0000	0	0	1.008
3	1	7	1	1.0000	1.0000	1	1	1.438
3	1	8	2	1.0000	1.0000	0	1	1.333
3	1	9	2	1.0000	1.0000	1	1	1.020
3	1	10	2	1.0000	1.0000	1	1	1.027
3	1	11	2	1.0000	1.0000	0	1	0.857
3	1	12	1	1.0000	1.0000	1	1	0.879
3	1	13	2	1.0000	1.0000	1	1	1.067
3	1	14	1	1.0000	1.0000	1	1	0.988
3	1	15	2	1.0000	1.0000	1	1	1.147
3	1	16	2	1.0000	1.0000	1	1	0.821
3	1	17	1	1.0000	1.0000	0	1	1.177
3	1	18	2	1.0000	1.0000	1	1	1.312
3	1	19	2	1.0000	1.0000	0	1	0.725
3	1	20	1	1.0000	1.0000	1	1	0.786
3	1	21	1	1.0000	1.0000	1	1	1.595
3	1	22	1	1.0000	1.0000	1	1	1.175
3	1	23	2	1.0000	1.0000	1	1	1.062
3	1	24	2	1.0000	1.0000	0	1	0.777
3	1	25	1	1.0000	1.0000	0	1	0.987
3	1	26	2	1.0000	1.0000	0	1	0.988
3	1	27	1	1.0000	1.0000	0	1	0.837
3	1	28	2	1.0000	1.0000	1	1	1.356
3	1	29	2	0.2500	0.2500	0	1	1.356
3	1	30	2	0.2629	0.2629	0	1	1.356
3	1	31	2	0.2758	0.2758	1	1	1.356
3	1	32	2	0.2887	0.2887	1	1	1.356
3	1	33	2	0.3016	0.3016	1	1	1.356
3	1	34	1	0.3145	0.3145	0	1	1.356
3	1	35	2	0.3274	0.3274	1	1	1.356
3	1	36	1	0.3403	0.3403	1	1	1.356
3	1	37	1	0.3532	0.3532	0	1	1.356
3	1	38	1	0.3661	0.3661	1	1	1.356
3	1	39	2	0.3790	0.3790	0	1	1.356
3	1	40	2	0.3919	0.3919	0	1	1.356
3	1	41	1	0.4048	0.4048	0	1	1.356
3	1	42	2	0.4177	0.4177	0	1	1.356
3	1	43	2	0.4306	0.4306	0	1	1.356
3	1	44	1	0.4435	0.4435	1	1	1.356
3	1	45	1	0.4565	0.4565	1	1	1.356
3	1	46	2	0.4694	0.4694	1	1	1.356
3	1	47	1	0.4823	0.4823	1	1	1.356
3	1	48	1	0.4952	0.4952	1	1	1.356
3	1	49	2	0.5081	0.5081	0	1	1.356
3	1	50	1	0.5210	0.5210	1	1	1.356
3	1	51	1	0.5339	0.5339	0	1	1.356
3	1	52	1	0.5468	0.5468	1	1	1.356
3	1	53	1	0.5597	0.5597	1	1	1.356
3	1	54	1	0.5726	0.5726	0	1	1.356
3	1	55	1	0.5855	0.5855	1	1	1.356
3	1	56	2	0.5984	0.5984	1	1	1.356
3	1	57	1	0.6113	0.6113	1	1	1.356
3	1	58	2	0.6242	0.6242	1	1	1.356
3	1	59	2	0.6371	0.6371	1	1	1.356
3	1	60	1	0.6500	0.6500	0	1	1.356
3	1	61	2	0.2500	0.2500	0	1	1.356
3	1	62	1	0.2629	0.2629	0	1	1.356
3	1	63	2	0.2758	0.2758	1	1	1.356
3	1	64	2	0.2887	0.2887	0	1	1.356
3	1	65	1	0.3016	0.3016	1	1	1.356
3	1	66	2	0.3145	0.3145	1	1	1.356
3	1	67	2	0.3274	0.3274	0	1	1.356
3	1	68	1	0.3403	0.3403	0	1	1.356
3	1	69	2	0.3532	0.3532	0	1	1.356
3	1	70	1	0.3661	0.3661	0	1	1.356
3	1	71	2	0.3790	0.3790	1	1	1.356
3	1	72	1	0.3919	0.3919	0	1	1.356
3	1	73	2	0.4048	0.4048	0	1	1.356
3	1	74	1	0.4177	0.4177	1	1	1.356
3	1	75	1	0.4306	0.4306	1	1	1.356
3	1	76	2	0.4435	0.4435	0	1	1.356
3	1	77	1	0.4565	0.4565	0	1	1.356
3	1	78	2	0.4694	0.4694	1	1	1.356
3	1	79	2	0.4823	0.4823	1	1	1.356
3	1	80	2	0.4952	0.4952	1	1	1.356
3	1	81	2	0.5081	0.5081	1	1	1.356
3	1	82	2	0.5210	0.5210	0	1	1.356
3	1	83	1	0.5339	0.5339	0	1	1.356
3	1	84	1	0.5468	0.5468	0	1	1.356
3	1	85	1	0.5597	0.5597	0	1	1.356
3	1	86	1	0.5726	0.5726	1	1	1.356
3	1	87	2	0.5855	0.5855	1	1	1.356
3	1	88	2	0.5984	0.5984	0	1	1.356
3	1	89	2	0.6113	0.6113	0	1	1.356
3	1	90	1	0.6242	0.6242	0	1	1.356
3	1	91	1	0.6371	0.6371	1	1	1.356
3	1	92	1	0.6500	0.6500	0	1	1.356
3	1	93	2	0.6500	0.4437	1	1	1.356
3	1	94	1	0.3570	0.4437	1	1	1.356
3	1	95	2	0.3570	0.4359	1	1	1.356
3	1	96	2	0.3570	0.4281	0	1	1.356
3	1	97	1	0.3519	0.4281	1	1	1.356
3	1	98	1	0.3667	0.4281	0	1	1.356
3	1	99	2	0.3667	0.4205	1	1	1.356
3	1	100	2	0.3667	0.4128	0	1	1.356
3	1	101	1	0.3813	0.4128	0	1	1.356
3	1	102	2	0.3813	0.4051	1	1	1.356
3	1	103	2	0.3813	0.3974	0	1	1.356
3	1	104	1	0.3948	0.3974	0	1	1.356
3	1	105	1	0.3904	0.3974	1	1	1.356
3	1	106	2	0.3904	0.3896	0	1	1.356
3	1	107	2	0.3904	0.3816	0	1	1.356
3	1	108	2	0.3904	0.3735	1	1	1.356
3	1	109	1	0.3861	0.3735	1	1	1.356
3	1	110	1	0.3819	0.3735	0	1	1.356
3	1	111	2	0.3819	0.3653	0	1	1.356
3	1	112	2	0.3819	0.3571	0	1	1.356
3	1	113	2	0.3819	0.3487	0	1	1.356
3	1	114	1	0.3777	0.3487	0	1	1.356
3	1	115	1	0.3737	0.3487	1	1	1.356
3	1	116	1	0.3697	0.3487	1	1	1.356
3	1	117	2	0.3697	0.3404	1	1	1.356
3	1	118	1	0.3659	0.3404	1	1	1.356
3	1	119	2	0.3659	0.3321	1	1	1.356
3	1	120	2	0.3659	0.3566	1	1	1.356
3	1	121	1	0.3776	0.3566	1	1	1.356
3	1	122	1	0.3739	0.3566	1	1	1.356
3	1	123	2	0.3739	0.3496	1	1	1.356
3	1	124	1	0.3702	0.3496	1	1	1.356
3	1	125	1	0.3667	0.3496	1	1	1.356
3	1	126	2	0.3667	0.3428	1	1	1.356
3	1	127	2	0.3667	0.3361	0	1	1.356
3	1	128	1	0.3632	0.3361	0	1	1.356
3	1	129	2	0.3632	0.3296	0	1	1.356
3	1	130	1	0.3597	0.3296	0	1	1.356
3	1	131	1	0.3697	0.3296	1	1	1.356
3	1	132	2	0.3697	0.3234	1	1	1.356
3	1	133	2	0.3697	0.3174	0	1	1.356
3	1	134	1	0.3665	0.3174	0	1	1.356
3	1	135	1	0.3633	0.3174	1	1	1.356
3	1	136	2	0.3633	0.3115	0	1	1.356
3	1	137	2	0.3633	0.3059	0	1	1.356
3	1	138	2	0.3633	0.3003	0	1	1.356
3	1	139	1	0.3600	0.3003	0	1	1.356
3	1	140	1	0.3570	0.3003	0	1	1.356
3	1	141	2	0.3570	0.2950	0	1	1.356
3	1	142	1	0.3539	0.2950	0	1	1.356
3	1	143	1	0.3509	0.2950	0	1	1.356
3	1	144	1	0.3480	0.2950	1	1	1.356
3	1	145	1	0.3452	0.2950	0	1	1.356
3	1	146	1	0.3423	0.2950	0	1	1.356
3	1	147	1	0.3395	0.2950	0	1	1.356
3	1	148	2	0.3395	0.2896	1	1	1.356
3	1	149	2	0.3395	0.2843	1	1	1.356
3	1	150	1	0.3369	0.2843	0	1	1.356
3	1	151	1	0.3343	0.2843	1	1	1.356
3	1	152	1	0.3316	0.2843	1	1	1.356
3	1	153	2	0.3316	0.2789	1	1	1.356
3	1	154	2	0.3316	0.2953	1	1	1.356
3	1	155	2	0.3316	0.2907	0	1	1.356
3	1	156	2	0.3316	0.2862	1	1	1.356
