sub	sess	t	loc	cue	co1	co2	or	resp	rt
1	1	1	1	3	0.1000	0.1000	1	1	1.620
1	1	2	1	3	0.1000	0.1000	1	1	0.950
1	1	3	1	3	0.1000	0.1000	1	1	0.488
1	1	4	1	3	0.1000	0.1000	1	1	0.601
1	1	5	2	3	0.1000	0.1000	0	1	0.674
1	1	6	1	3	0.1000	0.1000	0	1	0.476
1	1	7	1	3	0.1000	0.1000	0	1	0.473
1	1	8	2	3	0.1000	0.1000	1	1	0.493
1	1	9	1	3	0.1000	0.1000	1	1	0.905
1	1	10	1	3	0.1000	0.1000	0	1	0.472
1	1	11	2	3	0.1000	0.1000	1	1	0.505
1	1	12	1	3	0.1000	0.1000	0	1	0.494
1	1	13	1	3	0.1000	0.1000	1	1	0.767
1	1	14	1	3	0.1000	0.1000	1	1	0.610
1	1	15	1	3	0.1000	0.1000	0	1	0.540
1	1	16	1	3	0.1000	0.1000	0	1	0.647
1	1	17	2	3	0.1000	0.1000	0	1	0.612
1	1	18	1	3	0.1000	0.1000	0	1	0.513
1	1	19	1	3	0.1000	0.1000	1	1	1.743
1	1	20	1	3	0.1000	0.1000	0	1	0.550
1	1	21	1	3	0.1000	0.1000	0	1	0.644
1	1	22	1	3	0.1000	0.1000	0	1	0.559
1	1	23	1	3	0.1000	0.1000	0	1	0.692
1	1	24	1	3	0.1000	0.1000	1	1	1.019
1	1	25	1	3	0.1000	0.1000	0	1	0.696
1	1	26	1	3	0.1000	0.1000	0	1	1.102
1	1	27	1	3	0.1000	0.1000	0	1	0.500
1	1	28	1	3	0.1000	0.1000	1	0	0.549
1	1	29	1	3	0.1000	0.1000	1	1	0.637
1	1	30	2	3	0.1000	0.1000	1	1	0.502
1	1	31	1	3	0.1000	0.1000	1	0	0.666
1	1	32	1	3	0.1000	0.1000	0	1	0.686
1	1	33	1	3	0.1000	0.1000	1	1	0.795
1	1	34	1	3	0.1000	0.1000	1	0	0.613
1	1	35	2	3	0.1000	0.1000	1	1	0.610
1	1	36	2	3	0.1000	0.1000	0	1	0.651
1	1	37	1	3	0.1000	0.1000	1	0	0.719
1	1	38	1	3	0.1000	0.1000	1	1	0.826
1	1	39	2	3	0.1000	0.1000	0	1	0.693
1	1	40	1	3	0.1000	0.1000	0	0	0.671
1	1	41	1	3	0.1000	0.1000	0	1	0.592
1	1	42	1	3	0.1000	0.1000	0	1	0.558
1	1	43	1	3	0.1000	0.1000	1	1	1.251
1	1	44	1	3	0.1000	0.1000	0	1	0.577
1	1	45	1	3	0.1000	0.1000	1	0	0.980
1	1	46	2	3	0.1000	0.1000	1	1	0.520
1	1	47	1	3	0.1000	0.1000	1	0	0.796
1	1	48	2	3	0.1000	0.1000	0	1	1.071
1	1	49	1	3	0.1000	0.1000	0	1	0.500
1	1	50	1	3	0.1000	0.1000	0	1	0.511
1	1	51	1	3	0.1000	0.1000	1	0	0.525
1	1	52	2	3	0.1000	0.1000	0	1	0.759
1	1	53	1	3	0.1000	0.1000	0	1	0.543
1	1	54	1	3	0.1000	0.1000	0	1	0.535
1	1	55	1	3	0.1000	0.1000	1	0	0.475
1	1	56	1	3	0.1000	0.1000	1	0	0.518
1	1	57	1	3	0.1000	0.1000	1	1	0.760
1	1	58	1	3	0.1000	0.1000	0	1	0.560
1	1	59	1	3	0.1000	0.1000	1	1	0.750
1	1	60	2	3	0.1000	0.1000	1	1	0.551
1	1	61	1	2	0.1000	0.1000	0	1	0.607
1	1	62	2	2	0.1000	0.1000	0	0	0.640
1	1	63	2	2	0.1000	0.1000	0	1	0.584
1	1	64	1	2	0.1000	0.1000	1	1	0.862
1	1	65	2	2	0.1000	0.1000	0	1	0.568
1	1	66	2	2	0.1000	0.1000	1	1	0.486
1	1	67	1	2	0.1000	0.1000	1	1	0.534
1	1	68	1	2	0.1000	0.1000	1	1	0.840
1	1	69	1	2	0.1000	0.1000	0	1	0.473
1	1	70	2	2	0.1000	0.1000	1	1	0.560
1	1	71	2	2	0.1000	0.1000	1	1	0.527
1	1	72	1	2	0.1000	0.1000	0	1	0.468
1	1	73	1	2	0.1000	0.1000	0	1	0.495
1	1	74	2	2	0.1000	0.1000	1	1	0.615
1	1	75	2	2	0.1000	0.1000	0	1	0.577
1	1	76	1	2	0.1000	0.1000	1	1	0.609
1	1	77	1	2	0.1000	0.1000	1	1	0.500
1	1	78	2	2	0.1000	0.1000	0	1	0.493
1	1	79	1	2	0.1000	0.1000	0	1	0.626
1	1	80	2	2	0.1000	0.1000	1	1	0.500
1	1	81	2	2	0.1000	0.1000	0	1	0.651
1	1	82	1	2	0.1000	0.1000	1	1	0.607
1	1	83	1	2	0.1000	0.1000	1	1	0.645
1	1	84	2	2	0.1000	0.1000	1	1	0.478
1	1	85	1	2	0.1000	0.1000	0	1	0.507
1	1	86	1	2	0.1000	0.1000	1	1	0.579
1	1	87	2	2	0.1000	0.1000	1	1	0.511
1	1	88	2	2	0.1000	0.1000	0	0	0.485
1	1	89	2	2	0.1000	0.1000	1	1	0.537
1	1	90	1	2	0.1000	0.1000	0	0	0.624
1	1	91	2	2	0.1000	0.1000	0	0	1.103
1	1	92	1	2	0.1000	0.1000	0	1	0.835
1	1	93	1	2	0.1000	0.1000	1	1	0.651
1	1	94	2	2	0.1000	0.1000	1	1	0.557
1	1	95	2	2	0.1000	0.1000	1	1	0.500
1	1	96	2	2	0.1000	0.1000	0	1	0.537
1	1	97	2	2	0.1000	0.1000	1	1	0.475
1	1	98	1	2	0.1000	0.1000	1	1	0.792
1	1	99	1	2	0.1000	0.1000	1	1	1.162
1	1	100	2	2	0.1000	0.1000	1	1	0.581
1	1	101	1	2	0.1000	0.1000	0	1	0.926
1	1	102	2	2	0.1000	0.1000	0	1	0.587
1	1	103	1	2	0.1000	0.1000	0	1	0.532
1	1	104	2	2	0.1000	0.1000	0	1	0.562
1	1	105	2	2	0.1000	0.1000	0	1	0.639
1	1	106	1	2	0.1000	0.1000	0	1	0.669
1	1	107	1	2	0.1000	0.1000	1	1	0.481
1	1	108	1	2	0.1000	0.1000	0	1	0.507
1	1	109	2	1	0.1000	0.1000	1	1	0.923
1	1	110	2	1	0.1000	0.1000	0	1	0.635
1	1	111	2	1	0.1000	0.1000	0	1	0.497
1	1	112	2	1	0.1000	0.1000	0	1	0.444
1	1	113	1	1	0.1000	0.1000	0	0	0.926
1	1	114	2	1	0.1000	0.1000	1	1	0.630
1	1	115	1	1	0.1000	0.1000	1	1	0.479
1	1	116	2	1	0.1000	0.1000	1	1	0.474
1	1	117	2	1	0.1000	0.1000	0	0	0.540
1	1	118	2	1	0.1000	0.1000	0	1	0.619
1	1	119	2	1	0.1000	0.1000	1	1	0.564
1	1	120	2	1	0.1000	0.1000	0	0	0.650
1	1	121	2	1	0.1000	0.1000	1	1	0.517
1	1	122	2	1	0.1000	0.1000	0	1	0.650
1	1	123	2	1	0.1000	0.1000	0	1	0.482
1	1	124	2	1	0.1000	0.1000	1	1	0.537
1	1	125	1	1	0.1000	0.1000	1	1	0.946
1	1	126	2	1	0.1000	0.1000	1	1	0.549
1	1	127	2	1	0.1000	0.1000	1	1	0.483
1	1	128	1	1	0.1000	0.1000	0	1	0.761
1	1	129	2	1	0.1000	0.1000	1	1	0.512
1	1	130	2	1	0.1000	0.1000	0	0	0.680
1	1	131	2	1	0.1000	0.1000	1	1	0.551
1	1	132	2	1	0.1000	0.1000	1	1	0.484
1	1	133	1	1	0.1000	0.1000	0	1	0.926
1	1	134	1	1	0.1000	0.1000	0	1	0.644
1	1	135	2	1	0.1000	0.1000	0	0	0.665
1	1	136	2	1	0.1000	0.1000	0	1	0.653
1	1	137	2	1	0.1000	0.1000	0	1	0.770
1	1	138	2	1	0.1000	0.1000	0	0	0.705
1	1	139	2	1	0.1000	0.1000	1	1	0.548
1	1	140	2	1	0.1000	0.1000	1	1	0.527
1	1	141	2	1	0.1000	0.1000	1	1	0.515
1	1	142	2	1	0.1000	0.1000	0	0	0.499
1	1	143	2	1	0.1000	0.1000	1	1	0.523
1	1	144	1	1	0.1000	0.1000	1	0	0.874
1	1	145	2	1	0.1000	0.1000	1	1	0.576
1	1	146	1	1	0.1000	0.1000	1	1	0.641
1	1	147	2	1	0.1000	0.1000	0	1	0.535
1	1	148	2	1	0.1000	0.1000	0	1	0.501
1	1	149	2	1	0.1000	0.1000	1	1	0.569
1	1	150	2	1	0.1000	0.1000	0	1	0.686
1	1	151	2	1	0.1000	0.1000	0	0	0.638
1	1	152	2	1	0.1000	0.1000	1	1	0.583
1	1	153	2	1	0.1000	0.1000	1	1	0.661
1	1	154	1	1	0.1000	0.1000	0	1	0.669
1	1	155	2	1	0.1000	0.1000	1	1	0.581
1	1	156	1	1	0.1000	0.1000	0	0	0.730
1	1	157	2	1	0.1000	0.1000	0	0	0.904
1	1	158	1	1	0.1000	0.1000	1	1	0.731
1	1	159	2	1	0.1000	0.1000	1	0	1.125
1	1	160	2	1	0.1000	0.1000	0	0	0.673
1	1	161	2	1	0.1000	0.1000	1	1	0.881
1	1	162	2	1	0.1000	0.1000	0	1	0.730
1	1	163	1	1	0.1000	0.1000	1	1	0.722
1	1	164	2	1	0.1000	0.1000	1	1	0.535
1	1	165	2	1	0.1000	0.1000	1	1	0.562
1	1	166	2	1	0.1000	0.1000	0	1	0.582
1	1	167	2	1	0.1000	0.1000	0	1	0.773
1	1	168	2	1	0.1000	0.1000	0	0	0.711
1	1	169	2	2	0.1000	0.1000	0	1	0.749
1	1	170	2	1	0.1000	0.1000	1	1	0.534
1	1	171	1	3	0.1000	0.1000	0	1	0.743
1	1	172	1	1	0.1000	0.1000	0	1	0.718
1	1	173	1	3	0.1000	0.1000	0	1	0.658
1	1	174	1	3	0.1000	0.1000	1	0	0.629
1	1	175	1	3	0.1000	0.1000	1	1	0.636
1	1	176	1	3	0.1000	0.1000	0	0	0.903
1	1	177	1	2	0.1000	0.1000	1	1	0.691
1	1	178	2	1	0.1000	0.1000	1	1	0.631
1	1	179	1	3	0.1000	0.1000	0	1	0.484
1	1	180	2	1	0.1000	0.1000	0	0	0.538
1	1	181	2	2	0.1000	0.1000	0	1	0.869
1	1	182	1	1	0.1000	0.1000	0	1	0.566
1	1	183	2	2	0.1000	0.1000	1	1	0.628
1	1	184	1	3	0.1000	0.1000	0	1	0.618
1	1	185	1	2	0.1000	0.1000	0	1	0.562
1	1	186	2	1	0.1000	0.1000	0	1	0.598
1	1	187	2	2	0.1000	0.1000	1	1	0.560
1	1	188	1	3	0.1000	0.1000	1	0	0.536
1	1	189	2	3	0.1000	0.1000	1	1	1.598
1	1	190	2	1	0.1000	0.1000	0	1	0.723
1	1	191	2	1	0.1000	0.1000	0	1	0.565
1	1	192	2	1	0.1000	0.1000	1	1	0.610
1	1	193	1	2	0.1000	0.1000	0	1	0.508
1	1	194	2	1	0.1000	0.1000	0	1	0.572
1	1	195	2	1	0.1000	0.1000	0	0	0.743
1	1	196	1	2	0.1000	0.1000	0	0	0.696
1	1	197	1	2	0.1000	0.1000	0	0	0.928
1	1	198	2	1	0.1000	0.1000	1	1	0.522
1	1	199	2	3	0.1000	0.1000	0	1	0.670
1	1	200	1	3	0.1000	0.1000	1	1	0.718
1	1	201	1	3	0.1000	0.1000	0	1	0.775
1	1	202	2	1	0.1000	0.1000	0	1	0.702
1	1	203	2	2	0.1000	0.1000	1	1	0.506
1	1	204	1	1	0.1000	0.1000	1	1	0.542
1	1	205	2	1	0.1000	0.1000	1	1	0.580
1	1	206	1	3	0.1000	0.1000	1	0	1.795
1	1	207	2	1	0.1000	0.1000	1	1	0.574
1	1	208	1	3	0.1000	0.1000	1	1	0.847
1	1	209	2	2	0.1000	0.1000	1	1	0.596
1	1	210	1	2	0.1000	0.1000	1	0	0.733
1	1	211	1	2	0.1000	0.1000	1	1	0.516
1	1	212	1	3	0.1000	0.1000	0	1	0.656
1	1	213	2	3	0.1000	0.1000	0	0	0.554
1	1	214	1	3	0.1000	0.1000	1	1	1.122
1	1	215	1	1	0.1000	0.1000	1	1	0.672
1	1	216	2	1	0.1000	0.1000	1	1	0.582
1	1	217	1	3	0.1000	0.1000	0	1	0.831
1	1	218	2	3	0.1000	0.1000	1	1	0.632
1	1	219	1	2	0.1000	0.1000	1	1	0.610
1	1	220	2	2	0.1000	0.1000	0	1	0.623
1	1	221	1	3	0.1000	0.1000	1	1	0.661
1	1	222	2	1	0.1000	0.1000	1	1	0.554
1	1	223	2	1	0.1000	0.1000	0	0	0.541
1	1	224	2	2	0.1000	0.1000	0	0	0.638
1	1	225	1	3	0.1000	0.1000	0	1	0.967
1	1	226	2	1	0.1000	0.1000	1	1	0.516
1	1	227	1	2	0.1000	0.1000	1	0	0.694
1	1	228	2	2	0.1000	0.1000	0	1	0.729
1	1	229	1	3	0.1000	0.1000	1	1	0.767
1	1	230	2	1	0.1000	0.1000	0	1	0.646
1	1	231	1	3	0.1000	0.1000	1	1	0.669
1	1	232	2	2	0.1000	0.1000	0	1	0.611
1	1	233	1	1	0.1000	0.1000	1	0	1.347
1	1	234	1	2	0.1000	0.1000	0	1	0.611
1	1	235	1	2	0.1000	0.1000	1	1	0.650
1	1	236	2	2	0.1000	0.1000	1	1	0.800
1	1	237	1	3	0.1000	0.1000	1	1	0.611
1	1	238	1	3	0.1000	0.1000	0	1	0.437
1	1	239	2	2	0.1000	0.1000	1	1	0.521
1	1	240	2	1	0.1000	0.1000	1	1	0.886
1	1	241	2	1	0.1000	0.1000	0	1	0.792
1	1	242	2	3	0.1000	0.1000	1	1	0.528
1	1	243	2	1	0.1000	0.1000	0	1	1.183
1	1	244	2	1	0.1000	0.1000	0	1	0.590
1	1	245	2	1	0.1000	0.1000	0	1	0.513
1	1	246	2	2	0.1000	0.1000	0	1	0.551
1	1	247	2	2	0.1000	0.1000	0	1	0.565
1	1	248	1	2	0.1000	0.1000	0	1	0.543
1	1	249	1	3	0.1000	0.1000	0	1	0.506
1	1	250	2	1	0.1000	0.1000	1	1	0.598
1	1	251	2	3	0.1000	0.1000	0	1	0.693
1	1	252	1	2	0.1000	0.1000	1	0	0.577
1	1	253	1	1	0.1000	0.1000	0	1	0.529
1	1	254	2	1	0.1000	0.1000	0	1	0.602
1	1	255	1	3	0.1000	0.1000	0	1	1.334
1	1	256	1	3	0.1000	0.1000	0	1	0.497
1	1	257	2	1	0.1000	0.1000	0	1	0.531
1	1	258	2	2	0.1000	0.1000	1	1	0.537
1	1	259	2	3	0.1000	0.1000	0	1	0.558
1	1	260	1	3	0.1000	0.1000	0	1	0.514
1	1	261	2	3	0.1000	0.1000	1	1	0.616
1	1	262	1	2	0.1000	0.1000	0	1	0.758
1	1	263	1	1	0.1000	0.1000	1	1	0.635
1	1	264	2	2	0.1000	0.1000	1	1	0.710
1	1	265	2	1	0.1000	0.1000	1	1	0.590
1	1	266	1	3	0.1000	0.1000	1	0	0.623
1	1	267	1	2	0.1000	0.1000	1	1	0.810
1	1	268	2	1	0.1000	0.1000	1	1	0.606
1	1	269	1	3	0.1000	0.1000	0	1	0.794
1	1	270	1	3	0.1000	0.1000	1	1	0.661
1	1	271	1	3	0.1000	0.1000	1	0	0.805
1	1	272	2	1	0.1000	0.1000	1	1	0.600
1	1	273	2	1	0.1000	0.1000	1	1	0.499
1	1	274	1	3	0.1000	0.1000	1	0	0.880
1	1	275	2	1	0.1000	0.1000	1	1	0.752
1	1	276	1	3	0.1000	0.1000	0	0	2.508
1	1	277	1	2	0.1000	0.1000	0	1	0.927
1	1	278	2	1	0.1000	0.1000	0	1	0.730
1	1	279	1	3	0.1000	0.1000	1	1	0.560
1	1	280	1	1	0.1000	0.1000	0	1	0.604
1	1	281	1	2	0.1000	0.1000	1	1	0.876
1	1	282	2	2	0.1000	0.1000	0	1	0.514
1	1	283	1	3	0.1000	0.1000	0	1	0.498
1	1	284	1	3	0.1000	0.1000	0	1	0.494
1	1	285	1	3	0.1000	0.1000	0	1	0.620
1	1	286	1	3	0.1000	0.1000	1	0	0.894
1	1	287	1	3	0.1000	0.1000	0	1	0.644
1	1	288	2	2	0.1000	0.1000	1	1	0.484
1	1	289	2	1	0.1000	0.1000	1	1	0.649
1	1	290	1	3	0.1000	0.1000	1	1	0.878
1	1	291	1	1	0.1000	0.1000	0	1	0.528
1	1	292	2	1	0.1000	0.1000	1	1	0.959
1	1	293	1	3	0.1000	0.1000	1	0	0.588
1	1	294	1	1	0.1000	0.1000	1	1	0.596
1	1	295	2	1	0.1000	0.1000	0	1	0.711
1	1	296	1	3	0.1000	0.1000	0	1	0.568
1	1	297	2	2	0.1000	0.1000	1	1	0.550
1	1	298	1	3	0.1000	0.1000	1	1	0.718
1	1	299	2	1	0.1000	0.1000	0	1	0.593
1	1	300	2	1	0.1000	0.1000	1	1	0.582
1	1	301	2	1	0.1000	0.1000	0	1	0.880
1	1	302	1	2	0.1000	0.1000	0	1	0.557
1	1	303	1	3	0.1000	0.1000	0	1	0.485
1	1	304	1	3	0.1000	0.1000	1	1	0.597
1	1	305	1	2	0.1000	0.1000	0	1	0.480
1	1	306	2	1	0.1000	0.1000	1	1	0.605
1	1	307	2	3	0.1000	0.1000	0	1	0.601
1	1	308	2	3	0.1000	0.1000	1	1	0.575
1	1	309	1	3	0.1000	0.1000	0	1	0.771
1	1	310	2	1	0.1000	0.1000	0	1	0.539
1	1	311	2	2	0.1000	0.1000	0	1	0.554
1	1	312	1	3	0.1000	0.1000	0	1	0.593
1	1	313	1	3	0.1000	0.1000	1	0	0.555
1	1	314	1	1	0.1000	0.1000	0	1	0.623
1	1	315	2	2	0.1000	0.1000	0	1	0.561
1	1	316	1	2	0.1000	0.1000	0	1	0.463
1	1	317	1	2	0.1000	0.1000	1	0	0.501
1	1	318	2	1	0.1000	0.1000	1	1	0.587
1	1	319	2	3	0.1000	0.1000	0	1	0.450
1	1	320	2	3	0.1000	0.1000	1	1	0.562
1	1	321	1	3	0.1000	0.1000	1	1	0.704
1	1	322	1	1	0.1000	0.1000	1	1	0.639
1	1	323	2	2	0.1000	0.1000	1	0	0.569
1	1	324	2	1	0.1000	0.1000	0	1	0.641
1	1	325	1	2	0.1000	0.1000	0	0	0.546
1	1	326	2	1	0.1000	0.1000	1	1	0.530
1	1	327	2	2	0.1000	0.1000	0	1	0.641
1	1	328	2	2	0.1000	0.1000	1	1	0.547
1	1	329	1	2	0.1000	0.1000	1	1	0.918
1	1	330	2	1	0.1000	0.1000	0	1	0.836
1	1	331	2	1	0.1000	0.1000	0	0	0.914
1	1	332	2	1	0.1000	0.1000	1	1	0.630
1	1	333	1	3	0.1000	0.1000	1	1	0.681
1	1	334	1	2	0.1000	0.1000	1	1	0.529
1	1	335	2	1	0.1000	0.1000	1	1	0.782
1	1	336	2	1	0.1000	0.1000	0	1	0.833
