sub	sess	t	rew	loc	cue	co1	co2	or	resp	rt	rew_tot
1	1	1	0	2	2	0.1000	0.1000	1	1	0.511	8
1	1	2	0	1	1	0.1000	0.1000	1	1	0.639	7
1	1	3	0	2	1	0.1000	0.1000	0	1	0.533	8
1	1	4	0	1	3	0.1000	0.1000	1	1	0.576	8
1	1	5	0	2	1	0.1000	0.1000	0	1	0.466	9
1	1	6	0	1	1	0.1000	0.1000	0	1	0.475	9
1	1	7	0	1	2	0.1000	0.1000	0	1	0.580	8
1	1	8	1	2	1	0.1000	0.1000	1	1	0.637	71
1	1	9	1	1	2	0.1000	0.1000	1	1	0.673	68
1	1	10	0	2	2	0.1000	0.1000	1	1	0.533	8
1	1	11	1	1	3	0.1000	0.1000	0	1	0.550	80
1	1	12	0	1	2	0.1000	0.1000	1	1	0.477	9
1	1	13	1	1	3	0.1000	0.1000	1	1	0.581	77
1	1	14	1	2	2	0.1000	0.1000	0	1	0.641	71
1	1	15	0	1	3	0.1000	0.1000	0	1	0.553	8
1	1	16	0	1	3	0.1000	0.1000	0	1	0.492	9
1	1	17	1	1	2	0.1000	0.1000	0	1	0.435	92
1	1	18	1	2	1	0.1000	0.1000	0	1	0.488	86
1	1	19	1	2	2	0.1000	0.1000	1	1	0.513	84
1	1	20	0	1	3	0.1000	0.1000	0	1	0.582	8
1	1	21	1	2	1	0.1000	0.1000	0	1	1.007	50
1	1	22	1	1	2	0.1000	0.1000	1	1	0.538	81
1	1	23	0	2	1	0.1000	0.1000	1	1	0.600	8
1	1	24	1	2	3	0.1000	0.1000	1	1	0.444	91
1	1	25	0	1	3	0.1000	0.1000	0	1	0.511	8
1	1	26	1	1	2	0.1000	0.1000	1	1	0.502	85
1	1	27	1	2	3	0.1000	0.1000	1	1	0.507	84
1	1	28	1	1	1	0.1000	0.1000	1	0	0.665	0
1	1	29	0	2	2	0.1000	0.1000	1	1	0.468	9
1	1	30	1	2	2	0.1000	0.1000	0	1	0.551	80
1	1	31	1	2	2	0.1000	0.1000	1	1	0.478	87
1	1	32	1	2	1	0.1000	0.1000	0	1	0.558	79
1	1	33	0	1	2	0.1000	0.1000	1	1	0.447	9
1	1	34	1	1	3	0.1000	0.1000	1	1	0.522	83
1	1	35	0	2	2	0.1000	0.1000	0	1	0.512	8
1	1	36	0	2	1	0.1000	0.1000	1	1	0.403	9
1	1	37	0	1	3	0.1000	0.1000	1	0	0.544	0
1	1	38	0	1	1	0.1000	0.1000	0	1	0.609	7
1	1	39	1	1	3	0.1000	0.1000	0	1	0.469	88
1	1	40	0	1	3	0.1000	0.1000	0	1	0.536	8
1	1	41	1	1	3	0.1000	0.1000	1	1	0.620	73
1	1	42	1	1	1	0.1000	0.1000	0	1	0.541	81
1	1	43	1	2	1	0.1000	0.1000	1	1	0.540	81
1	1	44	1	2	1	0.1000	0.1000	0	0	0.563	0
1	1	45	1	2	1	0.1000	0.1000	1	1	0.413	94
1	1	46	0	1	3	0.1000	0.1000	1	0	0.592	0
1	1	47	1	1	3	0.1000	0.1000	1	1	0.464	89
1	1	48	0	2	1	0.1000	0.1000	1	0	0.931	0
1	1	49	1	1	3	0.1000	0.1000	0	1	0.437	91
1	1	50	0	1	3	0.1000	0.1000	1	1	0.560	8
1	1	51	1	2	1	0.1000	0.1000	0	1	0.525	83
1	1	52	1	1	2	0.1000	0.1000	1	1	0.682	67
1	1	53	1	2	1	0.1000	0.1000	1	1	0.425	92
1	1	54	0	2	1	0.1000	0.1000	0	1	0.654	7
1	1	55	1	2	1	0.1000	0.1000	0	1	0.581	77
1	1	56	1	1	1	0.1000	0.1000	1	1	0.717	63
1	1	57	1	1	3	0.1000	0.1000	1	0	0.626	0
1	1	58	0	1	3	0.1000	0.1000	0	1	0.523	8
1	1	59	0	2	1	0.1000	0.1000	0	1	0.569	8
1	1	60	1	1	3	0.1000	0.1000	0	1	0.507	84
1	1	61	1	2	2	0.1000	0.1000	0	1	0.609	74
1	1	62	1	1	3	0.1000	0.1000	0	1	0.458	89
1	1	63	0	2	1	0.1000	0.1000	1	1	0.482	9
1	1	64	0	1	3	0.1000	0.1000	1	1	0.432	9
1	1	65	1	2	2	0.1000	0.1000	1	1	0.391	96
1	1	66	1	1	3	0.1000	0.1000	0	1	0.463	89
1	1	67	0	2	1	0.1000	0.1000	1	0	0.540	0
1	1	68	1	2	1	0.1000	0.1000	1	1	0.445	91
1	1	69	1	1	2	0.1000	0.1000	0	1	0.475	88
1	1	70	1	1	2	0.1000	0.1000	0	1	0.507	84
1	1	71	0	1	3	0.1000	0.1000	0	1	0.376	10
1	1	72	1	1	3	0.1000	0.1000	1	1	0.483	87
1	1	73	0	1	2	0.1000	0.1000	1	0	0.496	0
1	1	74	1	2	2	0.1000	0.1000	1	1	0.437	91
1	1	75	0	1	2	0.1000	0.1000	0	1	0.539	8
1	1	76	0	1	2	0.1000	0.1000	0	1	0.585	8
1	1	77	1	1	1	0.1000	0.1000	0	1	0.488	86
1	1	78	1	2	1	0.1000	0.1000	1	0	0.447	0
1	1	79	0	2	3	0.1000	0.1000	0	1	0.694	7
1	1	80	1	2	2	0.1000	0.1000	0	0	0.557	0
1	1	81	0	1	2	0.1000	0.1000	1	1	0.688	7
1	1	82	0	2	1	0.1000	0.1000	1	1	0.485	9
1	1	83	1	1	2	0.1000	0.1000	0	1	0.542	81
1	1	84	1	2	1	0.1000	0.1000	1	1	0.412	94
1	1	85	0	1	2	0.1000	0.1000	0	1	0.556	8
1	1	86	1	2	2	0.1000	0.1000	1	1	0.578	77
1	1	87	0	2	1	0.1000	0.1000	0	0	0.557	0
1	1	88	0	2	2	0.1000	0.1000	1	1	0.480	9
1	1	89	0	1	3	0.1000	0.1000	1	0	0.618	0
1	1	90	1	1	3	0.1000	0.1000	1	1	0.570	78
1	1	91	1	2	1	0.1000	0.1000	0	1	0.595	76
1	1	92	0	2	3	0.1000	0.1000	1	0	0.571	0
1	1	93	0	2	1	0.1000	0.1000	0	1	0.521	8
1	1	94	1	1	3	0.1000	0.1000	0	1	0.510	84
1	1	95	0	1	2	0.1000	0.1000	1	0	1.029	0
1	1	96	1	2	3	0.1000	0.1000	0	0	0.469	0
1	1	97	1	1	3	0.1000	0.1000	0	1	0.433	92
1	1	98	0	2	3	0.1000	0.1000	0	1	1.216	5
1	1	99	0	1	1	0.1000	0.1000	1	1	0.625	7
1	1	100	0	2	2	0.1000	0.1000	0	1	0.660	7
1	1	101	1	2	1	0.1000	0.1000	0	1	0.503	85
1	1	102	1	1	3	0.1000	0.1000	1	1	0.991	50
1	1	103	0	1	3	0.1000	0.1000	1	0	0.532	0
1	1	104	0	2	2	0.1000	0.1000	0	1	0.459	9
1	1	105	0	1	3	0.1000	0.1000	0	1	0.574	8
1	1	106	0	2	1	0.1000	0.1000	0	1	0.791	6
1	1	107	0	2	2	0.1000	0.1000	1	1	0.659	7
1	1	108	1	1	2	0.1000	0.1000	1	0	0.510	0
1	1	109	0	2	1	0.1000	0.1000	1	1	0.501	8
1	1	110	0	2	1	0.1000	0.1000	1	1	0.480	9
1	1	111	1	1	2	0.1000	0.1000	0	0	0.719	0
1	1	112	1	2	1	0.1000	0.1000	1	1	0.497	85
1	1	113	0	2	3	0.1000	0.1000	1	1	0.580	8
1	1	114	1	2	3	0.1000	0.1000	0	1	0.538	81
1	1	115	0	2	2	0.1000	0.1000	0	1	0.496	9
1	1	116	0	1	3	0.1000	0.1000	1	1	0.653	7
1	1	117	0	1	2	0.1000	0.1000	0	1	0.519	8
1	1	118	0	2	2	0.1000	0.1000	0	1	0.570	8
1	1	119	0	2	1	0.1000	0.1000	0	1	1.141	5
1	1	120	1	2	2	0.1000	0.1000	0	1	0.584	77
1	1	121	0	2	1	0.1000	0.1000	1	0	0.747	0
1	1	122	1	1	3	0.1000	0.1000	0	1	0.543	81
1	1	123	1	1	2	0.1000	0.1000	1	1	0.488	86
1	1	124	0	1	3	0.1000	0.1000	0	1	0.411	9
1	1	125	1	1	3	0.1000	0.1000	1	0	0.434	0
1	1	126	1	2	1	0.1000	0.1000	0	1	0.557	79
1	1	127	1	1	1	0.1000	0.1000	1	1	0.490	86
1	1	128	1	2	1	0.1000	0.1000	1	1	0.493	86
1	1	129	1	2	2	0.1000	0.1000	0	1	0.509	84
1	1	130	0	1	3	0.1000	0.1000	1	1	0.514	8
1	1	131	1	1	3	0.1000	0.1000	1	1	0.470	88
1	1	132	1	2	2	0.1000	0.1000	0	1	0.567	78
1	1	133	1	2	1	0.1000	0.1000	0	1	0.430	92
1	1	134	0	1	3	0.1000	0.1000	1	1	0.814	5
1	1	135	1	2	1	0.1000	0.1000	1	1	0.508	84
1	1	136	1	2	1	0.1000	0.1000	1	1	0.462	89
1	1	137	0	1	1	0.1000	0.1000	0	1	0.482	9
1	1	138	1	2	1	0.1000	0.1000	1	1	0.499	85
1	1	139	0	2	1	0.1000	0.1000	0	0	0.473	0
1	1	140	0	2	1	0.1000	0.1000	0	1	0.493	9
1	1	141	1	1	2	0.1000	0.1000	0	1	0.494	86
1	1	142	0	2	2	0.1000	0.1000	1	1	0.474	9
1	1	143	1	2	3	0.1000	0.1000	1	1	0.506	84
1	1	144	0	2	2	0.1000	0.1000	1	1	0.500	8
1	1	145	0	2	2	0.1000	0.1000	0	1	0.534	8
1	1	146	0	2	1	0.1000	0.1000	1	1	0.498	9
1	1	147	0	1	3	0.1000	0.1000	0	1	0.562	8
1	1	148	0	2	2	0.1000	0.1000	0	1	0.521	8
1	1	149	0	2	2	0.1000	0.1000	1	1	0.462	9
1	1	150	1	1	2	0.1000	0.1000	1	1	0.674	68
1	1	151	1	1	3	0.1000	0.1000	0	1	0.546	80
1	1	152	1	2	3	0.1000	0.1000	1	0	0.840	0
1	1	153	1	2	2	0.1000	0.1000	0	1	0.663	69
1	1	154	1	2	2	0.1000	0.1000	1	1	0.498	85
1	1	155	0	2	1	0.1000	0.1000	1	1	0.467	9
1	1	156	1	1	2	0.1000	0.1000	0	1	0.431	92
1	1	157	0	2	3	0.1000	0.1000	0	0	0.494	0
1	1	158	0	2	3	0.1000	0.1000	0	1	0.478	9
1	1	159	0	2	1	0.1000	0.1000	0	1	0.474	9
1	1	160	1	1	3	0.1000	0.1000	0	1	0.516	83
1	1	161	1	2	2	0.1000	0.1000	1	1	0.650	70
1	1	162	0	1	3	0.1000	0.1000	0	1	0.582	8
1	1	163	0	1	3	0.1000	0.1000	0	1	0.445	9
1	1	164	0	1	2	0.1000	0.1000	1	0	0.525	0
1	1	165	1	1	3	0.1000	0.1000	1	0	0.469	0
1	1	166	0	2	1	0.1000	0.1000	0	1	0.648	7
1	1	167	0	1	2	0.1000	0.1000	0	1	0.486	9
1	1	168	1	1	3	0.1000	0.1000	0	1	0.467	88
1	1	169	0	2	1	0.1000	0.1000	0	1	0.517	8
1	1	170	1	1	3	0.1000	0.1000	1	0	0.709	0
1	1	171	0	1	3	0.1000	0.1000	1	0	0.550	0
1	1	172	0	1	2	0.1000	0.1000	1	1	0.578	8
1	1	173	0	2	3	0.1000	0.1000	1	1	0.505	8
1	1	174	0	1	3	0.1000	0.1000	1	1	0.508	8
1	1	175	1	1	1	0.1000	0.1000	0	1	0.510	84
1	1	176	1	2	1	0.1000	0.1000	1	1	0.438	91
1	1	177	0	1	3	0.1000	0.1000	0	1	0.544	8
1	1	178	0	1	2	0.1000	0.1000	0	1	0.515	8
1	1	179	1	1	3	0.1000	0.1000	0	1	0.474	88
1	1	180	1	2	1	0.1000	0.1000	1	1	0.459	89
1	1	181	0	2	2	0.1000	0.1000	0	1	0.513	8
1	1	182	1	2	2	0.1000	0.1000	1	1	0.490	86
1	1	183	0	1	2	0.1000	0.1000	0	1	0.599	8
1	1	184	1	1	3	0.1000	0.1000	0	1	0.441	91
1	1	185	1	2	1	0.1000	0.1000	0	0	0.387	0
1	1	186	0	2	1	0.1000	0.1000	1	1	0.442	9
1	1	187	0	2	1	0.1000	0.1000	1	0	0.533	0
1	1	188	1	1	2	0.1000	0.1000	0	1	0.464	89
1	1	189	1	2	1	0.1000	0.1000	0	0	0.581	0
1	1	190	0	1	1	0.1000	0.1000	1	0	0.633	0
1	1	191	0	2	2	0.1000	0.1000	1	1	0.554	8
1	1	192	1	1	3	0.1000	0.1000	1	0	0.826	0
1	1	193	0	2	1	0.1000	0.1000	1	1	0.437	9
1	1	194	1	1	2	0.1000	0.1000	1	1	0.697	65
1	1	195	0	2	1	0.1000	0.1000	0	1	0.608	7
1	1	196	1	2	2	0.1000	0.1000	1	1	0.597	75
1	1	197	0	1	3	0.1000	0.1000	0	1	0.445	9
1	1	198	0	1	3	0.1000	0.1000	0	1	0.507	8
1	1	199	1	2	1	0.1000	0.1000	0	1	0.697	65
1	1	200	1	1	3	0.1000	0.1000	1	0	0.567	0
1	1	201	1	1	3	0.1000	0.1000	0	1	0.742	61
1	1	202	0	2	1	0.1000	0.1000	1	1	0.453	9
1	1	203	0	2	2	0.1000	0.1000	0	0	0.673	0
1	1	204	0	2	3	0.1000	0.1000	1	1	0.496	9
1	1	205	1	1	3	0.1000	0.1000	0	1	0.473	88
1	1	206	1	1	3	0.1000	0.1000	1	1	0.499	85
1	1	207	0	1	1	0.1000	0.1000	1	0	0.642	0
1	1	208	0	1	2	0.1000	0.1000	1	1	0.685	7
1	1	209	0	1	2	0.1000	0.1000	1	1	0.563	8
1	1	210	0	1	3	0.1000	0.1000	1	1	0.538	8
1	1	211	0	2	1	0.1000	0.1000	0	1	0.565	8
1	1	212	1	2	2	0.1000	0.1000	0	1	0.551	80
1	1	213	0	1	2	0.1000	0.1000	0	1	0.504	8
1	1	214	0	2	2	0.1000	0.1000	1	1	0.511	8
1	1	215	1	2	2	0.1000	0.1000	0	1	0.570	78
1	1	216	1	1	2	0.1000	0.1000	1	0	0.602	0
1	1	217	0	2	1	0.1000	0.1000	1	1	0.482	9
1	1	218	1	2	1	0.1000	0.1000	0	1	0.533	82
1	1	219	0	1	3	0.1000	0.1000	1	0	0.674	0
1	1	220	0	1	3	0.1000	0.1000	0	1	0.652	7
1	1	221	1	2	3	0.1000	0.1000	0	1	0.496	85
1	1	222	1	1	1	0.1000	0.1000	1	0	0.712	0
1	1	223	0	1	1	0.1000	0.1000	0	1	0.782	6
1	1	224	1	1	2	0.1000	0.1000	0	1	0.518	83
1	1	225	1	2	1	0.1000	0.1000	0	1	0.434	92
1	1	226	0	1	2	0.1000	0.1000	0	1	0.490	9
1	1	227	1	1	3	0.1000	0.1000	1	0	0.442	0
1	1	228	1	1	2	0.1000	0.1000	1	0	0.500	0
1	1	229	0	1	3	0.1000	0.1000	1	0	1.078	0
1	1	230	0	2	2	0.1000	0.1000	0	1	0.757	6
1	1	231	0	1	3	0.1000	0.1000	1	0	0.526	0
1	1	232	1	1	2	0.1000	0.1000	0	1	0.457	89
1	1	233	0	2	1	0.1000	0.1000	0	1	0.538	8
1	1	234	1	2	1	0.1000	0.1000	0	1	0.466	88
1	1	235	0	1	2	0.1000	0.1000	1	1	0.627	7
1	1	236	1	2	1	0.1000	0.1000	1	1	0.629	72
1	1	237	1	2	2	0.1000	0.1000	1	1	0.527	82
1	1	238	1	1	1	0.1000	0.1000	0	0	0.647	0
1	1	239	1	2	3	0.1000	0.1000	0	1	0.714	64
1	1	240	1	2	1	0.1000	0.1000	1	1	0.551	80
1	1	241	0	1	3	0.1000	0.1000	1	0	0.613	0
1	1	242	1	1	3	0.1000	0.1000	1	0	0.629	0
1	1	243	0	1	3	0.1000	0.1000	0	1	0.505	8
1	1	244	1	1	3	0.1000	0.1000	0	1	0.463	89
1	1	245	0	1	3	0.1000	0.1000	1	1	0.797	6
1	1	246	0	1	2	0.1000	0.1000	1	0	0.532	0
1	1	247	1	1	1	0.1000	0.1000	0	1	0.552	80
1	1	248	1	1	3	0.1000	0.1000	1	1	0.661	69
1	1	249	1	2	2	0.1000	0.1000	1	1	0.860	50
1	1	250	0	1	3	0.1000	0.1000	1	0	0.507	0
1	1	251	0	2	2	0.1000	0.1000	1	1	0.576	8
1	1	252	0	2	2	0.1000	0.1000	0	0	0.594	0
1	1	253	1	1	3	0.1000	0.1000	1	0	0.889	0
1	1	254	1	1	2	0.1000	0.1000	0	0	0.517	0
1	1	255	1	2	1	0.1000	0.1000	0	1	0.637	71
1	1	256	1	1	1	0.1000	0.1000	1	1	0.746	60
1	1	257	1	2	1	0.1000	0.1000	1	1	0.629	72
1	1	258	0	2	1	0.1000	0.1000	0	1	0.611	7
1	1	259	0	1	2	0.1000	0.1000	0	1	0.524	8
1	1	260	0	2	1	0.1000	0.1000	1	1	0.544	8
1	1	261	0	2	1	0.1000	0.1000	0	1	0.619	7
1	1	262	1	1	3	0.1000	0.1000	0	1	0.538	81
1	1	263	1	1	3	0.1000	0.1000	1	0	0.698	0
1	1	264	1	1	3	0.1000	0.1000	0	0	0.619	0
1	1	265	0	2	2	0.1000	0.1000	1	1	0.502	8
1	1	266	0	2	1	0.1000	0.1000	1	1	0.507	8
1	1	267	1	2	2	0.1000	0.1000	0	1	0.459	89
1	1	268	0	2	1	0.1000	0.1000	1	1	0.487	9
1	1	269	1	2	1	0.1000	0.1000	1	1	0.493	86
1	1	270	0	2	2	0.1000	0.1000	1	1	0.424	9
1	1	271	1	2	2	0.1000	0.1000	0	1	0.529	82
1	1	272	1	2	1	0.1000	0.1000	0	1	0.524	83
1	1	273	0	2	3	0.1000	0.1000	1	1	0.559	8
1	1	274	1	2	1	0.1000	0.1000	0	0	0.534	0
1	1	275	0	1	3	0.1000	0.1000	0	1	0.475	9
1	1	276	0	1	3	0.1000	0.1000	0	1	0.537	8
1	1	277	1	2	2	0.1000	0.1000	0	1	0.618	73
1	1	278	1	1	3	0.1000	0.1000	0	1	0.516	83
1	1	279	1	1	2	0.1000	0.1000	1	0	0.502	0
1	1	280	1	2	1	0.1000	0.1000	1	1	1.093	50
1	1	281	1	1	2	0.1000	0.1000	0	1	0.745	60
1	1	282	0	1	3	0.1000	0.1000	0	1	0.469	9
1	1	283	0	1	2	0.1000	0.1000	1	0	0.506	0
1	1	284	0	2	2	0.1000	0.1000	0	1	0.957	5
1	1	285	1	2	1	0.1000	0.1000	1	1	0.551	80
1	1	286	1	1	2	0.1000	0.1000	1	1	0.518	83
1	1	287	1	1	3	0.1000	0.1000	0	1	0.435	91
1	1	288	0	2	3	0.1000	0.1000	0	1	0.539	8
1	1	289	1	1	3	0.1000	0.1000	0	1	0.570	78
1	1	290	0	1	3	0.1000	0.1000	0	1	0.501	8
1	1	291	1	1	3	0.1000	0.1000	1	1	0.630	72
1	1	292	0	1	2	0.1000	0.1000	0	1	0.586	8
1	1	293	1	2	2	0.1000	0.1000	0	1	0.531	82
1	1	294	1	2	1	0.1000	0.1000	1	1	0.637	71
1	1	295	1	1	2	0.1000	0.1000	1	1	0.670	68
1	1	296	0	2	1	0.1000	0.1000	0	1	0.698	7
1	1	297	0	2	3	0.1000	0.1000	0	0	0.752	0
1	1	298	0	2	1	0.1000	0.1000	0	1	0.455	9
1	1	299	0	2	1	0.1000	0.1000	1	1	0.591	8
1	1	300	1	2	3	0.1000	0.1000	1	1	0.528	82
1	1	301	0	1	2	0.1000	0.1000	0	1	0.530	8
1	1	302	1	1	3	0.1000	0.1000	1	1	0.510	84
1	1	303	1	1	2	0.1000	0.1000	1	0	0.487	0
1	1	304	0	2	1	0.1000	0.1000	1	1	0.633	7
1	1	305	1	2	2	0.1000	0.1000	1	1	0.444	91
1	1	306	1	1	2	0.1000	0.1000	1	0	0.526	0
1	1	307	1	2	1	0.1000	0.1000	1	1	0.555	80
1	1	308	0	2	1	0.1000	0.1000	0	1	0.763	6
1	1	309	0	1	3	0.1000	0.1000	0	1	0.584	8
1	1	310	1	1	3	0.1000	0.1000	0	1	0.539	81
1	1	311	1	2	1	0.1000	0.1000	0	1	0.515	84
1	1	312	1	2	3	0.1000	0.1000	1	1	0.475	87
1	1	313	0	2	1	0.1000	0.1000	0	1	0.546	8
1	1	314	0	1	1	0.1000	0.1000	1	0	0.715	0
1	1	315	1	1	2	0.1000	0.1000	0	1	0.485	86
1	1	316	1	2	3	0.1000	0.1000	0	1	0.747	60
1	1	317	0	2	3	0.1000	0.1000	1	1	0.469	9
1	1	318	0	1	1	0.1000	0.1000	1	0	0.622	0
1	1	319	1	1	2	0.1000	0.1000	0	1	0.646	70
1	1	320	0	1	3	0.1000	0.1000	1	0	0.671	0
1	1	321	0	2	2	0.1000	0.1000	0	1	0.572	8
1	1	322	0	1	2	0.1000	0.1000	1	1	0.654	7
1	1	323	1	1	1	0.1000	0.1000	1	1	0.625	73
1	1	324	0	1	2	0.1000	0.1000	1	1	0.562	8
1	1	325	1	2	2	0.1000	0.1000	1	1	0.495	86
1	1	326	0	2	1	0.1000	0.1000	1	1	0.444	9
1	1	327	1	2	1	0.1000	0.1000	0	1	0.471	88
1	1	328	0	1	1	0.1000	0.1000	0	1	0.646	7
1	1	329	1	1	2	0.1000	0.1000	0	1	0.663	69
1	1	330	0	1	3	0.1000	0.1000	1	0	0.638	0
1	1	331	0	2	1	0.1000	0.1000	0	1	0.643	7
1	1	332	0	1	2	0.1000	0.1000	0	1	0.790	6
1	1	333	1	2	2	0.1000	0.1000	0	1	0.884	50
1	1	334	1	1	3	0.1000	0.1000	0	0	0.683	0
1	1	335	0	1	2	0.1000	0.1000	0	1	0.718	6
1	1	336	0	2	2	0.1000	0.1000	1	0	1.166	0
1	1	337	0	2	1	0.1000	0.1000	1	1	0.518	8
1	1	338	1	2	1	0.1000	0.1000	0	1	0.834	52
1	1	339	0	1	3	0.1000	0.1000	0	1	0.707	6
1	1	340	1	2	3	0.1000	0.1000	0	0	0.687	0
1	1	341	1	2	1	0.1000	0.1000	0	1	0.758	59
1	1	342	1	2	2	0.1000	0.1000	1	1	0.506	84
1	1	343	1	1	3	0.1000	0.1000	1	1	0.575	78
1	1	344	0	2	2	0.1000	0.1000	0	1	0.616	7
1	1	345	0	1	1	0.1000	0.1000	0	0	0.585	0
1	1	346	1	1	3	0.1000	0.1000	1	0	0.612	0
1	1	347	0	2	2	0.1000	0.1000	1	1	0.456	9
1	1	348	0	2	1	0.1000	0.1000	0	0	0.878	0
1	1	349	0	1	2	0.1000	0.1000	1	0	0.511	0
1	1	350	1	1	1	0.1000	0.1000	0	1	0.755	59
1	1	351	0	1	3	0.1000	0.1000	1	1	0.724	6
1	1	352	1	2	1	0.1000	0.1000	0	1	0.447	90
1	1	353	1	2	1	0.1000	0.1000	1	1	0.468	88
1	1	354	0	1	3	0.1000	0.1000	1	0	0.522	0
1	1	355	1	2	1	0.1000	0.1000	1	1	1.433	50
1	1	356	0	2	1	0.1000	0.1000	1	1	0.540	8
1	1	357	0	2	2	0.1000	0.1000	0	1	0.540	8
1	1	358	0	1	3	0.1000	0.1000	0	1	0.488	9
1	1	359	1	2	2	0.1000	0.1000	1	1	0.440	91
1	1	360	0	1	3	0.1000	0.1000	1	1	0.884	5
1	1	361	0	2	2	0.1000	0.1000	0	1	1.050	5
1	1	362	0	2	1	0.1000	0.1000	1	1	0.482	9
1	1	363	1	2	1	0.1000	0.1000	1	1	0.728	62
1	1	364	0	1	2	0.1000	0.1000	1	1	1.100	5
1	1	365	0	2	1	0.1000	0.1000	0	1	0.716	6
1	1	366	1	2	1	0.1000	0.1000	0	1	0.522	83
1	1	367	0	1	3	0.1000	0.1000	0	1	0.685	7
1	1	368	0	1	1	0.1000	0.1000	0	1	0.581	8
1	1	369	1	1	3	0.1000	0.1000	1	0	0.537	0
1	1	370	0	1	3	0.1000	0.1000	1	1	0.907	5
1	1	371	1	2	3	0.1000	0.1000	0	1	0.490	86
1	1	372	0	2	2	0.1000	0.1000	0	1	0.524	8
1	1	373	0	1	3	0.1000	0.1000	1	1	0.901	5
1	1	374	1	1	2	0.1000	0.1000	1	1	0.550	80
1	1	375	0	1	2	0.1000	0.1000	1	0	0.567	0
1	1	376	0	1	3	0.1000	0.1000	0	1	0.640	7
1	1	377	1	1	3	0.1000	0.1000	0	1	0.505	85
1	1	378	0	2	2	0.1000	0.1000	0	1	0.643	7
1	1	379	0	1	3	0.1000	0.1000	1	1	0.799	6
1	1	380	0	2	2	0.1000	0.1000	0	1	0.624	7
1	1	381	0	1	3	0.1000	0.1000	0	1	0.539	8
1	1	382	0	1	2	0.1000	0.1000	1	0	0.676	0
1	1	383	1	1	3	0.1000	0.1000	1	1	0.842	51
1	1	384	1	1	2	0.1000	0.1000	1	1	0.615	73
1	1	385	1	2	2	0.1000	0.1000	1	1	0.784	57
1	1	386	0	2	3	0.1000	0.1000	0	1	0.553	8
1	1	387	0	2	3	0.1000	0.1000	1	1	0.540	8
1	1	388	1	1	2	0.1000	0.1000	0	1	0.670	68
1	1	389	1	1	2	0.1000	0.1000	1	1	0.676	67
1	1	390	1	2	1	0.1000	0.1000	0	1	0.727	62
1	1	391	1	2	1	0.1000	0.1000	0	1	0.509	84
1	1	392	1	1	1	0.1000	0.1000	0	1	0.792	56
1	1	393	0	2	1	0.1000	0.1000	1	1	0.625	7
1	1	394	1	1	2	0.1000	0.1000	0	1	0.480	87
1	1	395	1	1	3	0.1000	0.1000	1	1	0.567	78
1	1	396	0	1	2	0.1000	0.1000	0	1	0.607	7
1	1	397	1	1	3	0.1000	0.1000	1	1	0.800	55
1	1	398	0	2	1	0.1000	0.1000	0	1	0.638	7
1	1	399	1	1	1	0.1000	0.1000	1	1	0.687	66
1	1	400	0	1	2	0.1000	0.1000	0	1	0.611	7
1	1	401	1	1	1	0.1000	0.1000	0	1	0.556	79
1	1	402	0	2	2	0.1000	0.1000	0	1	0.656	7
1	1	403	1	1	3	0.1000	0.1000	1	1	1.121	50
1	1	404	0	2	2	0.1000	0.1000	1	1	0.520	8
1	1	405	0	1	3	0.1000	0.1000	1	1	0.637	7
1	1	406	1	1	3	0.1000	0.1000	0	1	0.558	79
1	1	407	1	1	3	0.1000	0.1000	0	1	0.554	80
1	1	408	0	2	1	0.1000	0.1000	1	1	0.508	8
1	1	409	0	2	1	0.1000	0.1000	1	0	0.913	0
1	1	410	0	2	1	0.1000	0.1000	0	1	0.742	6
1	1	411	1	2	1	0.1000	0.1000	0	1	0.599	75
1	1	412	1	2	3	0.1000	0.1000	1	1	0.461	89
1	1	413	0	1	1	0.1000	0.1000	1	1	0.695	7
1	1	414	1	2	1	0.1000	0.1000	1	1	0.766	58
1	1	415	0	2	1	0.1000	0.1000	0	1	0.749	6
1	1	416	1	2	3	0.1000	0.1000	1	0	0.539	0
1	1	417	1	2	1	0.1000	0.1000	1	1	0.520	83
1	1	418	0	2	3	0.1000	0.1000	0	1	0.624	7
1	1	419	0	1	3	0.1000	0.1000	0	0	0.744	0
1	1	420	1	2	2	0.1000	0.1000	1	1	0.555	80
1	1	421	1	1	2	0.1000	0.1000	0	1	0.856	50
1	1	422	0	1	1	0.1000	0.1000	0	1	0.556	8
1	1	423	0	1	2	0.1000	0.1000	1	0	0.678	0
1	1	424	1	2	1	0.1000	0.1000	0	0	0.796	0
1	1	425	1	2	2	0.1000	0.1000	0	1	0.509	84
1	1	426	1	2	2	0.1000	0.1000	1	1	0.537	81
1	1	427	1	2	1	0.1000	0.1000	1	1	0.662	69
1	1	428	0	1	3	0.1000	0.1000	1	1	0.665	7
1	1	429	0	2	1	0.1000	0.1000	1	1	0.703	6
1	1	430	0	1	3	0.1000	0.1000	1	0	0.799	0
1	1	431	0	1	1	0.1000	0.1000	1	1	0.815	5
1	1	432	0	2	1	0.1000	0.1000	0	0	0.721	0
1	1	433	1	2	1	0.1000	0.1000	0	1	0.835	52
1	1	434	1	1	3	0.1000	0.1000	1	1	0.869	50
1	1	435	0	2	2	0.1000	0.1000	1	1	0.634	7
1	1	436	0	1	2	0.1000	0.1000	0	1	0.543	8
1	1	437	0	1	3	0.1000	0.1000	1	1	0.510	8
1	1	438	0	2	2	0.1000	0.1000	1	1	0.586	8
1	1	439	0	1	3	0.1000	0.1000	1	1	0.680	7
1	1	440	1	2	1	0.1000	0.1000	1	1	0.525	83
1	1	441	1	1	3	0.1000	0.1000	0	1	1.034	50
1	1	442	1	1	3	0.1000	0.1000	0	1	0.475	88
1	1	443	0	1	2	0.1000	0.1000	0	1	0.578	8
1	1	444	1	1	3	0.1000	0.1000	0	1	0.511	84
1	1	445	1	2	3	0.1000	0.1000	0	1	0.611	74
1	1	446	1	2	2	0.1000	0.1000	0	1	0.563	79
1	1	447	1	1	2	0.1000	0.1000	1	0	0.729	0
1	1	448	1	2	1	0.1000	0.1000	1	1	0.561	79
1	1	449	0	2	2	0.1000	0.1000	1	1	0.486	9
1	1	450	0	1	2	0.1000	0.1000	0	1	0.621	7
1	1	451	1	1	1	0.1000	0.1000	1	1	0.644	71
1	1	452	1	1	2	0.1000	0.1000	0	1	0.637	71
1	1	453	1	2	1	0.1000	0.1000	1	1	0.521	83
1	1	454	0	2	1	0.1000	0.1000	0	1	0.648	7
1	1	455	1	2	1	0.1000	0.1000	1	1	0.608	74
1	1	456	1	2	2	0.1000	0.1000	1	1	0.558	79
1	1	457	0	2	1	0.1000	0.1000	1	1	0.467	9
1	1	458	1	1	3	0.1000	0.1000	0	1	0.568	78
1	1	459	0	2	1	0.1000	0.1000	1	1	0.480	9
1	1	460	0	2	2	0.1000	0.1000	1	1	0.503	8
1	1	461	1	1	3	0.1000	0.1000	1	1	0.565	78
1	1	462	1	2	2	0.1000	0.1000	0	1	0.932	50
1	1	463	0	1	3	0.1000	0.1000	0	1	0.694	7
1	1	464	0	2	1	0.1000	0.1000	0	0	0.630	0
1	1	465	0	2	3	0.1000	0.1000	1	1	0.569	8
1	1	466	1	2	2	0.1000	0.1000	0	1	0.588	76
1	1	467	1	2	2	0.1000	0.1000	0	1	0.580	77
1	1	468	1	2	2	0.1000	0.1000	1	1	0.511	84
1	1	469	0	2	1	0.1000	0.1000	0	1	0.645	7
1	1	470	0	1	2	0.1000	0.1000	1	1	0.758	6
1	1	471	0	2	1	0.1000	0.1000	1	1	0.550	8
1	1	472	1	1	2	0.1000	0.1000	1	0	0.960	0
1	1	473	0	1	3	0.1000	0.1000	0	1	0.527	8
1	1	474	0	1	3	0.1000	0.1000	0	1	0.511	8
1	1	475	1	1	3	0.1000	0.1000	1	0	0.691	0
1	1	476	0	1	3	0.1000	0.1000	0	1	0.492	9
1	1	477	1	1	3	0.1000	0.1000	0	1	0.527	82
1	1	478	1	2	1	0.1000	0.1000	0	1	0.634	72
1	1	479	1	1	2	0.1000	0.1000	0	1	0.508	84
1	1	480	1	2	1	0.1000	0.1000	0	1	0.631	72
1	1	481	0	2	1	0.1000	0.1000	0	1	0.772	6
1	1	482	1	2	1	0.1000	0.1000	0	1	0.473	88
1	1	483	1	1	3	0.1000	0.1000	0	1	0.556	79
1	1	484	1	1	2	0.1000	0.1000	1	0	0.699	0
1	1	485	0	2	2	0.1000	0.1000	1	1	0.509	8
1	1	486	0	1	2	0.1000	0.1000	1	0	0.511	0
1	1	487	1	2	1	0.1000	0.1000	1	1	0.569	78
1	1	488	0	2	1	0.1000	0.1000	1	1	0.509	8
1	1	489	1	1	3	0.1000	0.1000	0	1	0.559	79
1	1	490	1	2	1	0.1000	0.1000	1	1	0.490	86
1	1	491	1	2	3	0.1000	0.1000	0	0	0.515	0
1	1	492	0	2	2	0.1000	0.1000	0	1	0.574	8
1	1	493	0	2	2	0.1000	0.1000	0	1	0.607	7
1	1	494	1	2	2	0.1000	0.1000	0	1	0.769	58
1	1	495	0	1	3	0.1000	0.1000	0	1	0.529	8
1	1	496	1	1	1	0.1000	0.1000	0	1	0.807	54
1	1	497	1	1	2	0.1000	0.1000	1	0	1.003	0
1	1	498	0	2	1	0.1000	0.1000	0	1	0.629	7
1	1	499	1	2	1	0.1000	0.1000	1	0	0.846	0
1	1	500	0	1	2	0.1000	0.1000	0	1	0.533	8
1	1	501	1	1	3	0.1000	0.1000	1	1	0.913	50
1	1	502	1	1	3	0.1000	0.1000	1	1	0.656	69
1	1	503	1	1	2	0.1000	0.1000	0	1	0.819	53
1	1	504	1	2	2	0.1000	0.1000	1	1	0.545	81
1	1	505	0	2	1	0.1000	0.1000	1	1	0.559	8
1	1	506	1	2	3	0.1000	0.1000	1	1	0.526	82
1	1	507	0	2	1	0.1000	0.1000	0	1	0.517	8
1	1	508	0	1	2	0.1000	0.1000	1	1	0.751	6
1	1	509	1	1	1	0.1000	0.1000	1	0	0.534	0
1	1	510	1	1	3	0.1000	0.1000	1	1	0.518	83
1	1	511	0	2	1	0.1000	0.1000	1	1	0.499	9
1	1	512	1	2	2	0.1000	0.1000	1	1	0.588	76
1	1	513	0	2	2	0.1000	0.1000	0	1	0.577	8
1	1	514	0	2	1	0.1000	0.1000	0	1	0.553	8
1	1	515	1	2	2	0.1000	0.1000	1	1	0.698	65
1	1	516	0	1	3	0.1000	0.1000	0	1	0.768	6
1	1	517	1	1	3	0.1000	0.1000	1	1	0.611	74
1	1	518	1	1	3	0.1000	0.1000	0	1	0.614	74
1	1	519	1	1	3	0.1000	0.1000	1	1	0.759	59
1	1	520	0	2	2	0.1000	0.1000	1	1	0.577	8
1	1	521	1	2	2	0.1000	0.1000	0	0	1.203	0
1	1	522	0	1	3	0.1000	0.1000	0	1	0.505	8
1	1	523	1	2	1	0.1000	0.1000	1	1	0.589	76
1	1	524	1	2	1	0.1000	0.1000	0	1	0.563	79
1	1	525	1	2	1	0.1000	0.1000	1	1	0.476	87
1	1	526	1	1	2	0.1000	0.1000	1	1	1.019	50
1	1	527	0	2	1	0.1000	0.1000	1	1	0.563	8
1	1	528	1	1	3	0.1000	0.1000	0	0	0.719	0
1	1	529	1	1	2	0.1000	0.1000	0	1	0.623	73
1	1	530	0	2	3	0.1000	0.1000	0	0	1.004	0
1	1	531	0	1	3	0.1000	0.1000	0	1	0.500	8
1	1	532	1	1	1	0.1000	0.1000	0	1	0.716	63
1	1	533	0	1	3	0.1000	0.1000	1	0	0.801	0
1	1	534	1	2	2	0.1000	0.1000	0	1	0.637	71
1	1	535	0	1	1	0.1000	0.1000	1	0	1.054	0
1	1	536	1	1	1	0.1000	0.1000	1	0	1.704	0
1	1	537	1	2	3	0.1000	0.1000	1	1	1.176	50
1	1	538	0	2	2	0.1000	0.1000	0	0	0.823	0
1	1	539	0	1	1	0.1000	0.1000	0	1	0.532	8
1	1	540	1	2	2	0.1000	0.1000	1	1	0.540	81
1	1	541	0	1	3	0.1000	0.1000	1	0	0.560	0
1	1	542	1	2	2	0.1000	0.1000	0	0	0.477	0
1	1	543	1	2	3	0.1000	0.1000	0	0	0.805	0
1	1	544	1	2	1	0.1000	0.1000	1	1	0.488	86
1	1	545	0	2	3	0.1000	0.1000	1	1	0.791	6
1	1	546	1	1	2	0.1000	0.1000	1	1	0.806	54
1	1	547	0	1	3	0.1000	0.1000	0	1	0.481	9
1	1	548	1	1	2	0.1000	0.1000	0	1	0.713	64
1	1	549	1	2	1	0.1000	0.1000	1	1	0.421	93
1	1	550	0	2	1	0.1000	0.1000	1	1	0.442	9
1	1	551	0	1	1	0.1000	0.1000	0	0	0.529	0
1	1	552	0	1	2	0.1000	0.1000	1	0	0.466	0
1	1	553	0	2	2	0.1000	0.1000	0	0	0.589	0
1	1	554	0	2	1	0.1000	0.1000	0	1	0.866	5
1	1	555	1	1	2	0.1000	0.1000	0	1	0.575	78
1	1	556	0	2	1	0.1000	0.1000	1	1	0.476	9
1	1	557	1	1	3	0.1000	0.1000	0	1	0.562	79
1	1	558	0	1	2	0.1000	0.1000	0	1	0.624	7
1	1	559	0	1	3	0.1000	0.1000	0	1	0.606	7
1	1	560	0	1	3	0.1000	0.1000	1	0	0.685	0
1	1	561	0	1	2	0.1000	0.1000	0	1	0.558	8
1	1	562	0	2	1	0.1000	0.1000	1	1	0.602	7
1	1	563	1	1	3	0.1000	0.1000	1	0	0.799	0
1	1	564	0	1	1	0.1000	0.1000	1	0	0.853	0
1	1	565	1	2	2	0.1000	0.1000	1	1	0.538	81
1	1	566	0	2	1	0.1000	0.1000	0	1	0.513	8
1	1	567	1	2	1	0.1000	0.1000	0	1	0.666	68
1	1	568	1	1	2	0.1000	0.1000	0	1	0.577	77
1	1	569	0	2	2	0.1000	0.1000	1	1	0.484	9
1	1	570	0	1	3	0.1000	0.1000	0	1	0.461	9
1	1	571	1	1	3	0.1000	0.1000	0	1	0.637	71
1	1	572	1	1	3	0.1000	0.1000	1	0	0.713	0
1	1	573	0	1	3	0.1000	0.1000	1	0	0.578	0
1	1	574	0	2	1	0.1000	0.1000	0	1	0.578	8
1	1	575	0	1	2	0.1000	0.1000	0	1	0.550	8
1	1	576	0	2	3	0.1000	0.1000	1	1	0.578	8
1	1	577	0	1	3	0.1000	0.1000	1	0	0.578	0
1	1	578	0	1	3	0.1000	0.1000	1	1	0.836	5
1	1	579	1	1	2	0.1000	0.1000	1	0	0.523	0
1	1	580	1	1	3	0.1000	0.1000	1	0	0.910	0
1	1	581	0	1	2	0.1000	0.1000	1	0	0.932	0
1	1	582	0	2	1	0.1000	0.1000	0	0	0.680	0
1	1	583	1	2	1	0.1000	0.1000	0	1	0.485	87
1	1	584	0	1	2	0.1000	0.1000	1	1	0.526	8
1	1	585	0	2	3	0.1000	0.1000	0	1	1.552	5
1	1	586	0	1	2	0.1000	0.1000	0	1	0.545	8
1	1	587	1	2	1	0.1000	0.1000	0	1	0.650	70
1	1	588	1	1	3	0.1000	0.1000	0	1	0.537	81
1	1	589	1	2	1	0.1000	0.1000	0	1	0.466	88
1	1	590	0	2	1	0.1000	0.1000	1	1	0.526	8
1	1	591	0	1	3	0.1000	0.1000	1	1	0.668	7
1	1	592	0	1	3	0.1000	0.1000	1	0	0.556	0
1	1	593	1	2	1	0.1000	0.1000	0	1	0.710	64
1	1	594	1	1	3	0.1000	0.1000	0	1	0.664	69
1	1	595	0	2	2	0.1000	0.1000	1	1	0.556	8
1	1	596	0	1	3	0.1000	0.1000	0	1	0.681	7
1	1	597	1	2	1	0.1000	0.1000	1	1	0.457	89
1	1	598	1	2	1	0.1000	0.1000	0	1	0.452	90
1	1	599	1	2	2	0.1000	0.1000	0	1	0.699	65
1	1	600	0	2	2	0.1000	0.1000	1	1	0.531	8
1	1	601	0	2	2	0.1000	0.1000	0	1	0.511	8
1	1	602	1	1	2	0.1000	0.1000	0	0	0.831	0
1	1	603	0	2	2	0.1000	0.1000	1	0	0.436	0
1	1	604	1	2	1	0.1000	0.1000	1	1	0.605	74
1	1	605	1	1	2	0.1000	0.1000	1	0	1.001	0
1	1	606	1	1	2	0.1000	0.1000	0	1	0.580	77
1	1	607	0	1	1	0.1000	0.1000	1	0	0.544	0
1	1	608	0	2	3	0.1000	0.1000	0	1	0.948	5
1	1	609	1	2	1	0.1000	0.1000	0	1	0.620	73
1	1	610	0	1	3	0.1000	0.1000	1	0	0.564	0
1	1	611	0	2	1	0.1000	0.1000	0	1	0.532	8
1	1	612	0	1	3	0.1000	0.1000	1	0	0.841	0
1	1	613	1	2	2	0.1000	0.1000	0	1	0.698	65
1	1	614	1	1	1	0.1000	0.1000	0	1	1.323	50
1	1	615	1	2	2	0.1000	0.1000	1	1	0.695	66
1	1	616	1	1	2	0.1000	0.1000	0	1	0.470	88
1	1	617	0	1	2	0.1000	0.1000	1	0	0.726	0
1	1	618	0	1	3	0.1000	0.1000	1	0	0.625	0
1	1	619	0	2	1	0.1000	0.1000	0	1	0.618	7
1	1	620	1	1	2	0.1000	0.1000	0	1	0.502	85
1	1	621	0	1	3	0.1000	0.1000	0	1	0.475	9
1	1	622	1	2	1	0.1000	0.1000	1	1	0.952	50
1	1	623	1	1	3	0.1000	0.1000	1	0	1.514	0
1	1	624	0	1	3	0.1000	0.1000	0	1	0.663	7
1	1	625	1	2	1	0.1000	0.1000	1	1	1.008	50
1	1	626	0	1	3	0.1000	0.1000	1	0	0.562	0
1	1	627	0	2	1	0.1000	0.1000	1	1	0.606	7
1	1	628	1	1	3	0.1000	0.1000	0	1	0.517	83
1	1	629	1	2	1	0.1000	0.1000	1	1	0.503	85
1	1	630	1	2	2	0.1000	0.1000	1	1	0.570	78
1	1	631	0	2	2	0.1000	0.1000	1	1	0.516	8
1	1	632	1	2	2	0.1000	0.1000	1	1	0.527	82
1	1	633	0	2	2	0.1000	0.1000	1	1	0.559	8
1	1	634	1	1	3	0.1000	0.1000	1	0	0.739	0
1	1	635	1	2	3	0.1000	0.1000	1	1	0.610	74
1	1	636	1	2	1	0.1000	0.1000	1	1	0.494	86
1	1	637	0	1	3	0.1000	0.1000	0	1	0.582	8
1	1	638	1	2	3	0.1000	0.1000	0	1	0.777	57
1	1	639	0	1	2	0.1000	0.1000	0	1	0.587	8
1	1	640	0	1	3	0.1000	0.1000	0	1	0.864	5
1	1	641	0	1	2	0.1000	0.1000	0	1	0.530	8
1	1	642	1	1	3	0.1000	0.1000	0	1	0.539	81
1	1	643	1	1	3	0.1000	0.1000	0	1	0.468	88
1	1	644	0	1	3	0.1000	0.1000	0	1	0.475	9
1	1	645	0	2	1	0.1000	0.1000	0	1	0.537	8
1	1	646	0	2	2	0.1000	0.1000	1	1	0.501	8
1	1	647	0	2	3	0.1000	0.1000	1	1	0.449	9
1	1	648	0	1	1	0.1000	0.1000	0	0	0.497	0
1	1	649	0	2	2	0.1000	0.1000	0	1	0.538	8
1	1	650	1	2	1	0.1000	0.1000	0	1	1.301	50
1	1	651	0	1	2	0.1000	0.1000	0	1	0.501	8
1	1	652	0	1	3	0.1000	0.1000	1	1	1.210	5
1	1	653	0	2	1	0.1000	0.1000	1	1	0.503	8
1	1	654	1	2	1	0.1000	0.1000	1	1	0.442	91
1	1	655	1	2	1	0.1000	0.1000	1	0	1.106	0
1	1	656	1	1	1	0.1000	0.1000	1	0	0.654	0
1	1	657	1	1	2	0.1000	0.1000	1	0	0.646	0
1	1	658	0	2	1	0.1000	0.1000	0	1	0.592	8
1	1	659	0	1	2	0.1000	0.1000	1	1	0.517	8
1	1	660	1	2	2	0.1000	0.1000	0	1	0.507	84
1	1	661	1	1	3	0.1000	0.1000	1	0	0.566	0
1	1	662	0	2	2	0.1000	0.1000	0	1	0.518	8
1	1	663	1	2	1	0.1000	0.1000	0	1	0.390	96
1	1	664	1	1	3	0.1000	0.1000	1	0	0.583	0
1	1	665	0	2	3	0.1000	0.1000	0	1	0.582	8
1	1	666	1	1	2	0.1000	0.1000	1	1	0.746	60
1	1	667	0	1	2	0.1000	0.1000	1	1	0.730	6
1	1	668	0	1	3	0.1000	0.1000	0	1	0.440	9
1	1	669	0	1	2	0.1000	0.1000	0	1	0.529	8
1	1	670	1	1	2	0.1000	0.1000	0	1	0.528	82
1	1	671	1	2	1	0.1000	0.1000	0	1	0.694	66
1	1	672	1	1	3	0.1000	0.1000	0	1	0.527	82
1	1	673	0	2	1	0.1000	0.1000	1	1	0.542	8
1	1	674	1	2	1	0.1000	0.1000	0	1	0.408	94
1	1	675	1	1	3	0.1000	0.1000	1	0	0.700	0
1	1	676	1	1	2	0.1000	0.1000	1	0	0.891	0
1	1	677	1	2	1	0.1000	0.1000	0	1	0.425	93
1	1	678	0	1	2	0.1000	0.1000	1	0	1.168	0
1	1	679	1	2	2	0.1000	0.1000	0	1	0.529	82
1	1	680	1	1	3	0.1000	0.1000	0	1	0.477	87
1	1	681	0	2	1	0.1000	0.1000	1	1	0.478	9
1	1	682	0	2	2	0.1000	0.1000	1	1	0.483	9
1	1	683	0	1	2	0.1000	0.1000	1	1	0.532	8
1	1	684	0	2	2	0.1000	0.1000	0	1	0.651	7
1	1	685	0	1	3	0.1000	0.1000	1	1	0.518	8
1	1	686	0	2	2	0.1000	0.1000	0	1	0.488	9
1	1	687	0	1	3	0.1000	0.1000	0	0	1.081	0
1	1	688	1	2	2	0.1000	0.1000	0	1	0.495	85
1	1	689	1	2	3	0.1000	0.1000	0	1	0.538	81
1	1	690	1	2	2	0.1000	0.1000	1	1	0.543	81
1	1	691	1	2	1	0.1000	0.1000	1	1	0.527	82
1	1	692	0	2	1	0.1000	0.1000	1	1	0.668	7
1	1	693	0	2	1	0.1000	0.1000	1	1	0.462	9
1	1	694	0	2	1	0.1000	0.1000	0	1	0.501	8
1	1	695	0	2	1	0.1000	0.1000	1	1	0.465	9
1	1	696	0	2	1	0.1000	0.1000	0	1	0.477	9
1	1	697	1	1	1	0.1000	0.1000	0	1	0.874	50
1	1	698	0	1	3	0.1000	0.1000	1	0	0.513	0
1	1	699	1	1	3	0.1000	0.1000	1	1	0.753	60
1	1	700	1	1	3	0.1000	0.1000	0	1	0.476	87
1	1	701	0	2	1	0.1000	0.1000	1	1	0.591	8
1	1	702	1	2	1	0.1000	0.1000	0	1	0.489	86
1	1	703	0	2	1	0.1000	0.1000	0	1	0.474	9
1	1	704	1	1	1	0.1000	0.1000	1	0	0.850	0
1	1	705	1	1	3	0.1000	0.1000	1	1	0.681	67
1	1	706	0	2	1	0.1000	0.1000	0	1	0.468	9
1	1	707	1	1	3	0.1000	0.1000	1	1	0.701	65
1	1	708	1	2	2	0.1000	0.1000	1	1	0.593	76
1	1	709	0	1	1	0.1000	0.1000	0	0	0.501	0
1	1	710	1	2	1	0.1000	0.1000	0	1	0.635	71
1	1	711	1	2	3	0.1000	0.1000	1	1	0.566	78
1	1	712	0	1	3	0.1000	0.1000	0	1	0.725	6
1	1	713	0	1	1	0.1000	0.1000	1	1	0.751	6
1	1	714	1	1	3	0.1000	0.1000	0	1	0.531	82
1	1	715	1	1	2	0.1000	0.1000	1	1	0.677	67
1	1	716	1	1	3	0.1000	0.1000	0	1	0.613	74
1	1	717	1	2	2	0.1000	0.1000	0	1	0.650	70
1	1	718	0	1	2	0.1000	0.1000	0	1	0.653	7
1	1	719	0	1	3	0.1000	0.1000	1	1	0.654	7
1	1	720	0	2	3	0.1000	0.1000	1	1	0.995	5
